File: TAInstCalorimetry/DATA/myexp8.csv
Time,Temperature [AmbientT(Therm3T)],Temperature [Temperature],Heat flow [Signal],Heat [Signal],Normalized heat flow [Signal],Normalized heat [Signal],Time markers
0.0,24.4859,20.0003,NaN,NaN,NaN,NaN,Reaction start
35.8566,24.4869,20.0001,0.000520502,0.00256754,0.000130125,0.000641885,NaN
52.8566,24.4283,20.0003,0.00393744,0.0355686,0.000984361,0.00889214,NaN
74.8566,24.4907,20.0005,0.0121532,0.207577,0.0030383,0.0518943,NaN
106.357,24.4704,20.0002,0.0254926,0.802643,0.00637314,0.200661,NaN
137.857,24.4826,20.0003,0.0366263,1.78864,0.00915658,0.44716,NaN
172.107,24.4688,20.0003,0.0455237,3.20438,0.0113809,0.801094,NaN
209.607,24.472,20.0001,0.052141,5.04425,0.0130353,1.26106,NaN
245.107,24.442,19.9999,0.0562155,6.97278,0.0140539,1.74319,NaN
282.607,24.4804,20.0002,0.0589063,9.13558,0.0147266,2.2839,NaN
322.357,24.4771,20,0.0605092,11.5124,0.0151273,2.8781,NaN
373.357,24.4883,20.0001,0.0613788,14.6249,0.0153447,3.65622,NaN
431.607,24.5475,20,0.0614573,18.2058,0.0153643,4.55146,NaN
504.482,24.5001,20.0004,0.0607301,22.6636,0.0151825,5.6659,NaN
561.982,24.5328,20.0002,0.0593382,26.1198,0.0148345,6.52995,NaN
618.482,24.5486,20.0003,0.0571104,29.4131,0.0142776,7.35329,NaN
670.357,24.5929,20.0003,0.0544612,32.3091,0.0136153,8.07729,NaN
746.857,24.6161,20.0002,0.0499511,36.3059,0.0124878,9.07648,NaN
821.755,24.5954,20.0003,0.0453122,39.8731,0.011328,9.96827,NaN
893.357,24.5726,20.0004,0.0409742,42.9615,0.0102435,10.7404,NaN
969.732,24.5139,20.0001,0.0366272,45.9227,0.00915679,11.4807,NaN
1056.42,24.5496,19.9998,0.0321422,48.8996,0.00803554,12.2249,NaN
1139.86,24.5408,20,0.0283041,51.4183,0.00707602,12.8546,NaN
1236.36,24.5306,19.9998,0.0244344,53.9583,0.0061086,13.4896,NaN
1312.36,24.543,19.9998,0.021785,55.7125,0.00544625,13.9281,NaN
1402.4,24.5201,19.9999,0.01905,57.5477,0.00476249,14.3869,NaN
1491.17,24.5604,19.9998,0.0167369,59.1334,0.00418423,14.7833,NaN
1582.73,24.523,20,0.014694,60.57,0.0036735,15.1425,NaN
1694.36,24.5162,20,0.0126072,62.09,0.0031518,15.5225,NaN
1790.11,24.6078,19.9998,0.0111134,63.2236,0.00277835,15.8059,NaN
1914.33,24.5202,19.9997,0.00951091,64.501,0.00237773,16.1252,NaN
2014.73,24.5531,19.9996,0.00844302,65.4009,0.00211076,16.3502,NaN
2126.04,24.5482,19.9999,0.00745262,66.2839,0.00186315,16.571,NaN
2268.73,24.533,19.9991,0.00642353,67.2709,0.00160588,16.8177,NaN
2379.76,24.5437,19.9999,0.00577275,67.947,0.00144319,16.9868,NaN
2539.04,24.5606,19.9997,0.00501769,68.8039,0.00125442,17.201,NaN
2679.61,24.5504,19.9995,0.004488,69.4706,0.001122,17.3676,NaN
2845.74,24.5159,19.9998,0.00398693,70.173,0.000996732,17.5432,NaN
3036.48,24.5467,19.9994,0.00353708,70.8888,0.00088427,17.7222,NaN
3261.45,24.5791,20.0001,0.00313222,71.6369,0.000783054,17.9092,NaN
3457.65,24.5819,20,0.00285888,72.2235,0.000714721,18.0559,NaN
3656.04,24.5507,19.9999,0.00263741,72.768,0.000659352,18.192,NaN
3826.91,24.6004,19.9996,0.00247951,73.2047,0.000619878,18.3012,NaN
4030.04,24.5274,19.9996,0.00232236,73.692,0.000580589,18.423,NaN
4266.22,24.5703,19.9997,0.00217167,74.222,0.000542917,18.5555,NaN
4476.33,24.581,19.9998,0.00205949,74.6662,0.000514873,18.6666,NaN
4714.32,24.5337,20.0001,0.00195275,75.1431,0.000488187,18.7858,NaN
4922.36,24.5539,19.9997,0.00187338,75.541,0.000468344,18.8853,NaN
5137.19,24.578,19.9996,0.00180283,75.9357,0.000450708,18.9839,NaN
5370.43,24.5808,20.0009,0.00173675,76.3483,0.000434188,19.0871,NaN
5608.6,24.5851,19.9999,0.00167954,76.7549,0.000419885,19.1887,NaN
5832.75,24.5907,20.0002,0.0016334,77.1261,0.00040835,19.2815,NaN
6062.01,24.5677,20,0.00159302,77.4959,0.000398256,19.374,NaN
6325.77,24.5889,19.9998,0.00155398,77.9107,0.000388496,19.4777,NaN
6523.24,24.5597,19.9996,0.00153004,78.2151,0.00038251,19.5538,NaN
6772.45,24.5885,20.0001,0.00150487,78.5932,0.000376217,19.6483,NaN
6965.12,24.5912,19.9998,0.00148895,78.8816,0.000372238,19.7204,NaN
7159.68,24.6113,19.9996,0.00147574,79.1699,0.000368935,19.7925,NaN
7350.98,24.623,19.9997,0.00146559,79.4512,0.000366398,19.8628,NaN
7562.07,24.6059,20,0.00145647,79.7596,0.000364117,19.9399,NaN
7773.55,24.6133,20,0.00144998,80.0669,0.000362496,20.0167,NaN
8007.59,24.6225,19.9998,0.00144421,80.4055,0.000361053,20.1014,NaN
8215.81,24.6359,20.0002,0.00143963,80.7058,0.000359907,20.1764,NaN
8522.91,24.6178,19.9999,0.00143238,81.1467,0.000358096,20.2867,NaN
8748.79,24.589,20,0.00143496,81.4703,0.000358739,20.3676,NaN
8945.14,24.6106,19.9999,0.00145109,81.7533,0.000362773,20.4383,NaN
9163.01,24.6111,19.9998,0.00148389,82.0728,0.000370971,20.5182,NaN
9381.22,24.6356,19.9996,0.00152858,82.4014,0.000382144,20.6003,NaN
9567.99,24.6159,19.9999,0.00157114,82.6908,0.000392786,20.6727,NaN
9755.14,24.6035,19.9999,0.0016153,82.9889,0.000403824,20.7472,NaN
9989.55,24.6511,19.9998,0.00166992,83.374,0.00041748,20.8435,NaN
10225.2,24.5421,19.9999,0.00172233,83.7737,0.000430582,20.9434,NaN
10431.2,24.5816,20.0002,0.00176618,84.1331,0.000441545,21.0333,NaN
10637.4,24.6056,19.9998,0.00180842,84.5017,0.000452106,21.1254,NaN
10862.3,24.6177,20.0002,0.00185336,84.9135,0.000463339,21.2284,NaN
11129.1,24.6184,20,0.00190543,85.4149,0.000476359,21.3537,NaN
11316.8,24.6246,19.9996,0.00194212,85.776,0.000485531,21.444,NaN
11532,24.6072,19.9998,0.00198368,86.1984,0.00049592,21.5496,NaN
11779.6,24.6107,19.9996,0.00203183,86.6956,0.000507957,21.6739,NaN
12029.6,24.6403,19.999,0.00208088,87.2097,0.000520221,21.8024,NaN
12245.3,24.6369,19.9998,0.00212409,87.6631,0.000531022,21.9158,NaN
12489.7,24.6201,19.9998,0.00217373,88.1882,0.000543434,22.0471,NaN
12732.8,24.6322,20.0001,0.00222418,88.7228,0.000556046,22.1807,NaN
12938.2,24.6152,19.9995,0.0022675,89.184,0.000566876,22.296,NaN
13152.3,24.5746,19.9998,0.00231361,89.6744,0.000578403,22.4186,NaN
13402.6,24.6354,19.9998,0.00236763,90.2604,0.000591906,22.5651,NaN
13651.7,24.6249,20,0.00242293,90.857,0.000605732,22.7143,NaN
13845.5,24.6101,19.9998,0.0024667,91.3309,0.000616674,22.8327,NaN
14044.1,24.6305,19.9997,0.00251168,91.8252,0.000627919,22.9563,NaN
14263.5,24.6289,19.9999,0.00256303,92.3817,0.000640759,23.0954,NaN
14449.9,24.6138,19.9997,0.00260674,92.8635,0.000651685,23.2159,NaN
14737.7,24.6435,20,0.00267519,93.6236,0.000668798,23.4059,NaN
15027.1,24.6306,19.9996,0.00274584,94.4081,0.00068646,23.602,NaN
15241.5,24.6495,20.0002,0.00279842,95.0025,0.000699606,23.7506,NaN
15470.2,24.6454,20.0002,0.00285537,95.649,0.000713843,23.9122,NaN
15682,24.6309,19.9997,0.00290914,96.2593,0.000727285,24.0648,NaN
15920.1,24.6532,19.9995,0.00296991,96.9594,0.000742477,24.2398,NaN
16101.1,24.6397,19.9998,0.00301632,97.5009,0.000754079,24.3752,NaN
16375.7,24.6252,19.9996,0.00308718,98.339,0.000771796,24.5848,NaN
16637.2,24.6157,20.0003,0.00315562,99.1552,0.000788904,24.7888,NaN
16934.5,24.6268,19.9996,0.00323441,100.105,0.000808603,25.0262,NaN
17174.3,24.607,19.9999,0.00329904,100.888,0.000824759,25.2221,NaN
17391.8,24.653,20,0.00335877,101.612,0.000839693,25.4031,NaN
17639.3,24.6187,19.9999,0.00342695,102.453,0.000856737,25.6133,NaN
17865.3,24.6286,19.9996,0.00348998,103.234,0.000872496,25.8084,NaN
18102.6,24.6285,19.9995,0.00355688,104.07,0.000889219,26.0175,NaN
18351.8,24.6584,19.9999,0.0036277,104.965,0.000906925,26.2412,NaN
18583.1,24.6179,20,0.00369408,105.812,0.00092352,26.453,NaN
18794.9,24.5927,19.9998,0.0037554,106.601,0.00093885,26.6502,NaN
19014.8,24.6243,19.9999,0.00381983,107.434,0.000954959,26.8584,NaN
19280.9,24.6358,20,0.00389825,108.46,0.000974562,27.1151,NaN
19504.8,24.6924,19.9995,0.00396476,109.341,0.000991189,27.3351,NaN
19699.9,24.6344,19.9999,0.00402323,110.12,0.00100581,27.53,NaN
19955.7,24.6543,20.0006,0.00410039,111.159,0.0010251,27.7897,NaN
20152.7,24.6457,20.0002,0.00416024,111.973,0.00104006,27.9932,NaN
20390.9,24.6226,20,0.0042332,112.972,0.0010583,28.2431,NaN
20608.9,24.725,20,0.00430013,113.902,0.00107503,28.4756,NaN
20820.3,24.6643,19.9994,0.00436504,114.818,0.00109126,28.7045,NaN
21068.5,24.6752,19.9996,0.0044421,115.911,0.00111052,28.9777,NaN
21287.1,24.6928,19.9998,0.00451045,116.89,0.00112761,29.2224,NaN
21503.1,24.6937,19.9995,0.00457774,117.871,0.00114443,29.4678,NaN
21744.2,24.6421,19.9999,0.00465383,118.984,0.00116346,29.746,NaN
21969.1,24.6994,19.9988,0.00472483,120.039,0.00118121,30.0097,NaN
22311.7,24.6754,19.9997,0.0048336,121.676,0.0012084,30.4191,NaN
22525.3,24.6614,19.9996,0.00490203,122.716,0.00122551,30.679,NaN
22752.4,24.6833,20.0001,0.00497505,123.837,0.00124376,30.9593,NaN
22989.4,24.6697,19.9999,0.00505174,125.026,0.00126294,31.2565,NaN
23377,24.6745,19.9999,0.00517681,127.008,0.0012942,31.752,NaN
23610.3,24.7067,19.9998,0.00525156,128.224,0.00131289,32.056,NaN
23879.1,24.6856,19.9999,0.00533822,129.648,0.00133455,32.4119,NaN
24161.3,24.685,19.9996,0.00542864,131.167,0.00135716,32.7917,NaN
24421.5,24.7064,20.0001,0.00551186,132.59,0.00137797,33.1476,NaN
24608.8,24.6966,19.9996,0.00557186,133.628,0.00139297,33.407,NaN
24843.5,24.6927,19.9995,0.00564729,134.945,0.00141182,33.7362,NaN
25091.1,24.683,20,0.00572621,136.353,0.00143155,34.0882,NaN
25354.8,24.74,19.9995,0.00581011,137.874,0.00145253,34.4684,NaN
25563.7,24.6807,19.9995,0.00587594,139.094,0.00146899,34.7736,NaN
25797.3,24.7199,19.9998,0.00594969,140.476,0.00148742,35.1189,NaN
26072.1,24.711,19.9994,0.0060361,142.123,0.00150903,35.5306,NaN
26292.9,24.7239,19.9998,0.00610484,143.463,0.00152621,35.8656,NaN
26535.7,24.6969,19.9998,0.00618021,144.954,0.00154505,36.2386,NaN
26810.3,24.7137,19.9999,0.00626461,146.663,0.00156615,36.6658,NaN
27021.2,24.7139,19.9999,0.00632902,147.991,0.00158226,36.9977,NaN
27234.4,24.7058,19.9996,0.00639405,149.347,0.00159851,37.3368,NaN
27438.4,24.7144,20,0.00645514,150.658,0.00161378,37.6645,NaN
27670.8,24.7236,20,0.00652472,152.166,0.00163118,38.0416,NaN
27952.7,24.7225,20.0001,0.00660756,154.017,0.00165189,38.5043,NaN
28230.8,24.7348,19.9997,0.00668825,155.866,0.00167206,38.9666,NaN
28483.7,24.7396,19.9998,0.00676063,157.567,0.00169016,39.3917,NaN
28673.3,24.7417,19.9998,0.00681435,158.853,0.00170359,39.7134,NaN
28915.3,24.7486,19.9997,0.0068819,160.511,0.00172047,40.1277,NaN
29137.3,24.7391,19.9998,0.00694343,162.045,0.00173586,40.5113,NaN
29355.5,24.7136,19.9997,0.00700344,163.567,0.00175086,40.8918,NaN
29646.5,24.7242,20,0.00708329,165.617,0.00177082,41.4041,NaN
29885.8,24.7197,20.0002,0.00714725,167.32,0.00178681,41.8299,NaN
30094.3,24.6747,20,0.00720185,168.815,0.00180046,42.2037,NaN
30337.7,24.7186,19.9997,0.00726386,170.576,0.00181597,42.6439,NaN
30554.6,24.6783,19.9998,0.00731754,172.157,0.00182939,43.0392,NaN
30789.2,24.6434,19.9997,0.00737455,173.881,0.00184364,43.4702,NaN
31033,24.6591,19.9996,0.00743239,175.686,0.0018581,43.9214,NaN
31309.5,24.6439,20,0.00749624,177.749,0.00187406,44.4373,NaN
31548.6,24.6016,19.9998,0.00754982,179.548,0.00188745,44.8871,NaN
31775.4,24.5973,19.9999,0.00759974,181.266,0.00189994,45.3164,NaN
32052.8,24.6202,19.9992,0.00765905,183.382,0.00191476,45.8456,NaN
32313.5,24.5608,19.9998,0.00771317,185.386,0.00192829,46.3466,NaN
32589.5,24.5913,19.9993,0.00776899,187.523,0.00194225,46.8808,NaN
32835.7,24.5554,20.0001,0.00781729,189.442,0.00195432,47.3604,NaN
33073.3,24.5452,19.9996,0.00786231,191.304,0.00196558,47.8261,NaN
33345.3,24.5323,19.9998,0.00791242,193.45,0.0019781,48.3625,NaN
33589.9,24.5551,19.9997,0.00795636,195.39,0.00198909,48.8476,NaN
33818,24.5123,20.0003,0.00799571,197.21,0.00199893,49.3025,NaN
34042.7,24.5424,19.9999,0.00803383,199.011,0.00200846,49.7528,NaN
34305.9,24.5141,19.9998,0.00807674,201.131,0.00201919,50.2828,NaN
34539.1,24.5319,19.9999,0.00811449,203.019,0.00202862,50.7548,NaN
34814.2,24.5127,19.9996,0.00815677,205.257,0.00203919,51.3143,NaN
35053.2,24.5174,19.9998,0.00819248,207.211,0.00204812,51.8027,NaN
35272,24.5128,19.9998,0.008224,209.006,0.002056,52.2516,NaN
35467.9,24.5415,19.9998,0.00825082,210.621,0.00206271,52.6552,NaN
35656.1,24.5473,19.9992,0.00827647,212.176,0.00206912,53.044,NaN
35925.7,24.5336,19.9999,0.00831112,214.412,0.00207778,53.6029,NaN
36137.2,24.5052,19.9997,0.0083366,216.173,0.00208415,54.0432,NaN
36335.1,24.4919,20.0003,0.00836021,217.825,0.00209005,54.4562,NaN
36614.7,24.4912,20.0002,0.00839112,220.166,0.00209778,55.0416,NaN
36810.5,24.5015,19.9986,0.00841229,221.812,0.00210307,55.4529,NaN
37077.7,24.4891,19.9993,0.0084393,224.063,0.00210983,56.0156,NaN
37291.3,24.4654,19.9993,0.00845992,225.868,0.00211498,56.4669,NaN
37571.3,24.472,20,0.00848515,228.24,0.00212129,57.0601,NaN
37901.9,24.4568,19.9998,0.00851344,231.05,0.00212836,57.7625,NaN
38122,24.4277,20,0.00853068,232.926,0.00213267,58.2315,NaN
38408.8,24.4692,20,0.0085517,235.376,0.00213793,58.8439,NaN
38685.1,24.4659,20,0.00857019,237.741,0.00214255,59.4352,NaN
38918.6,24.4488,19.9996,0.00858466,239.744,0.00214616,59.936,NaN
39172.2,24.4337,20.0001,0.00859882,241.922,0.0021497,60.4806,NaN
39367,24.4424,19.9994,0.00860905,243.599,0.00215226,60.8997,NaN
39602.8,24.4612,20.0001,0.00861986,245.63,0.00215497,61.4076,NaN
39833.5,24.4697,19.9995,0.00862954,247.62,0.00215739,61.9051,NaN
40038,24.4424,20.0003,0.00863746,249.385,0.00215937,62.3463,NaN
40351,24.4417,19.9997,0.00864773,252.09,0.00216193,63.0225,NaN
40530.6,24.4512,19.9998,0.00865241,253.644,0.0021631,63.4109,NaN
40794,24.4268,20.0004,0.0086588,255.924,0.0021647,63.981,NaN
41067.2,24.4085,20.0004,0.0086641,258.291,0.00216602,64.5726,NaN
41320.9,24.4479,20,0.00866763,260.489,0.00216691,65.1223,NaN
41568,24.4324,19.9999,0.00866946,262.631,0.00216736,65.6577,NaN
41796,24.4198,20.0001,0.00867052,264.608,0.00216763,66.1519,NaN
42041.4,24.4466,19.9995,0.00867099,266.736,0.00216775,66.6839,NaN
42287.7,24.4272,19.9999,0.0086702,268.871,0.00216755,67.2178,NaN
42517.8,24.4024,19.9998,0.00866876,270.866,0.00216719,67.7166,NaN
42758.7,24.3863,19.9994,0.00866642,272.954,0.0021666,68.2385,NaN
43005.7,24.4111,19.9992,0.00866336,275.094,0.00216584,68.7736,NaN
43224.6,24.3813,19.9998,0.00865995,276.991,0.00216499,69.2477,NaN
43467.5,24.3641,19.9998,0.00865506,279.094,0.00216376,69.7734,NaN
43705.5,24.3906,20,0.00864979,281.153,0.00216245,70.2882,NaN
43953.9,24.4467,20.0003,0.00864375,283.3,0.00216094,70.825,NaN
44198.6,24.3573,19.9997,0.00863676,285.415,0.00215919,71.3538,NaN
44505,24.3777,20.0002,0.0086274,288.06,0.00215685,72.0149,NaN
44819.1,24.374,19.9996,0.00861617,290.768,0.00215404,72.692,NaN
45009.2,24.3388,20,0.00860953,292.405,0.00215238,73.1013,NaN
45225.5,24.392,19.9996,0.00860114,294.267,0.00215029,73.5667,NaN
45468.9,24.318,20,0.00859135,296.358,0.00214784,74.0896,NaN
45684.5,24.3675,19.9992,0.00858236,298.21,0.00214559,74.5524,NaN
45986.7,24.38,19.9999,0.00856855,300.802,0.00214214,75.2004,NaN
46211.1,24.3847,19.9994,0.00855857,302.723,0.00213964,75.6808,NaN
46415.1,24.3574,20.0001,0.00854901,304.468,0.00213725,76.117,NaN
46640.2,24.3496,20.0003,0.00853865,306.391,0.00213466,76.5978,NaN
46929.3,24.3787,19.9998,0.00852483,308.858,0.00213121,77.2144,NaN
47197.7,24.3503,19.9995,0.00851206,311.145,0.00212801,77.7861,NaN
47401.6,24.3758,19.9995,0.00850308,312.879,0.00212577,78.2198,NaN
47600.1,24.3573,20,0.00849426,314.566,0.00212356,78.6415,NaN
47783.7,24.305,19.9996,0.00848604,316.125,0.00212151,79.0311,NaN
48043.3,24.3258,19.9998,0.00847554,318.326,0.00211889,79.5816,NaN
48253.1,24.2768,19.9993,0.00846826,320.104,0.00211707,80.0259,NaN
48453.5,24.3119,19.9998,0.00846169,321.801,0.00211542,80.4501,NaN
48715.8,24.3309,20,0.00845591,324.018,0.00211398,81.0046,NaN
48959.5,24.3277,20.0001,0.00845301,326.079,0.00211325,81.5199,NaN
49206.4,24.359,20,0.00845316,328.166,0.00211329,82.0416,NaN
49373.1,24.3236,19.9993,0.00845526,329.575,0.00211382,82.3938,NaN
49568.3,24.3542,20.0003,0.0084603,331.226,0.00211507,82.8065,NaN
49767.3,24.2714,19.9999,0.00846824,332.91,0.00211706,83.2276,NaN
49995.5,24.3203,19.9997,0.00848029,334.845,0.00212007,83.7111,NaN
50249.3,24.3248,20,0.00849657,336.999,0.00212414,84.2498,NaN
50514.4,24.327,19.9996,0.00851522,339.253,0.00212881,84.8133,NaN
50738.1,24.3149,19.9999,0.00853143,341.16,0.00213286,85.29,NaN
50984.1,24.3152,19.9996,0.00854803,343.261,0.00213701,85.8153,NaN
51267.9,24.2496,19.9995,0.00856523,345.689,0.00214131,86.4223,NaN
51505.5,24.2827,19.9995,0.00857761,347.727,0.0021444,86.9316,NaN
51745.4,24.2962,19.9998,0.0085879,349.786,0.00214698,87.4464,NaN
51945,24.2901,20.0003,0.00859502,351.5,0.00214875,87.875,NaN
52196.4,24.2959,20.0001,0.00860243,353.662,0.00215061,88.4154,NaN
52485.2,24.2961,20.0002,0.00860842,356.147,0.0021521,89.0368,NaN
52717.9,24.3041,19.9998,0.00861135,358.151,0.00215284,89.5377,NaN
52926.4,24.3063,20.0001,0.00861258,359.946,0.00215314,89.9866,NaN
53137.5,24.2842,19.9991,0.0086127,361.764,0.00215317,90.4411,NaN
53430.3,24.3096,20.0001,0.00861009,364.286,0.00215252,91.0714,NaN
53682.2,24.2739,20.0001,0.00860622,366.454,0.00215156,91.6136,NaN
53885.1,24.2951,19.9998,0.00860218,368.2,0.00215054,92.05,NaN
54081.4,24.2847,19.9995,0.00859706,369.889,0.00214927,92.4721,NaN
54334.8,24.284,20.0002,0.00858865,372.065,0.00214716,93.0163,NaN
54585.2,24.2892,20.0004,0.0085794,374.215,0.00214485,93.5538,NaN
54805.6,24.2391,20,0.0085696,376.104,0.0021424,94.0261,NaN
55028.9,24.2686,20,0.00855852,378.017,0.00213963,94.5044,NaN
55293.7,24.2787,19.9999,0.00854389,380.282,0.00213597,95.0704,NaN
55505.7,24.3297,19.9997,0.00853154,382.092,0.00213289,95.5229,NaN
55733,24.312,19.9999,0.00851667,384.029,0.00212917,96.0073,NaN
55975.6,24.2675,20,0.00850001,386.093,0.002125,96.5233,NaN
56234.6,24.2725,19.9995,0.00848146,388.292,0.00212036,97.0731,NaN
56444.3,24.2854,19.9998,0.00846518,390.069,0.0021163,97.5173,NaN
56707.7,24.276,19.9999,0.0084438,392.296,0.00211095,98.074,NaN
57031,24.2786,20,0.00841604,395.021,0.00210401,98.7554,NaN
57268.8,24.2787,20.0001,0.00839485,397.021,0.00209871,99.2552,NaN
57458.8,24.2726,19.9997,0.00837742,398.614,0.00209436,99.6536,NaN
57691.1,24.2681,19.9998,0.00835516,400.557,0.00208879,100.139,NaN
57941.4,24.2447,19.9997,0.00833058,402.645,0.00208265,100.661,NaN
58188.5,24.2526,19.9995,0.00830567,404.701,0.00207642,101.175,NaN
58446.3,24.2787,19.9994,0.00827884,406.839,0.00206971,101.71,NaN
58665.3,24.252,19.9998,0.00825555,408.649,0.00206389,102.162,NaN
58876.6,24.2415,19.9998,0.00823338,410.392,0.00205834,102.598,NaN
59097.6,24.2199,20.0001,0.00820923,412.208,0.00205231,103.052,NaN
59295.5,24.2531,19.9997,0.00818767,413.831,0.00204692,103.458,NaN
59584.3,24.2525,19.9997,0.0081549,416.191,0.00203873,104.048,NaN
59866,24.2395,19.9999,0.00812288,418.483,0.00203072,104.621,NaN
60096,24.2331,19.9992,0.00809607,420.348,0.00202402,105.087,NaN
60363.3,24.2416,19.9998,0.0080644,422.508,0.0020161,105.627,NaN
60599.7,24.2506,20.0002,0.00803616,424.411,0.00200904,106.103,NaN
60798.2,24.2357,19.9997,0.0080126,426.004,0.00200315,106.501,NaN
61054,24.2571,20.0003,0.00798144,428.05,0.00199536,107.013,NaN
61281.4,24.249,19.9998,0.00795366,429.862,0.00198842,107.466,NaN
61502.8,24.2552,20.0002,0.00792626,431.62,0.00198156,107.905,NaN
61831.7,24.2591,20.0003,0.00788554,434.22,0.00197139,108.555,NaN
62027.1,24.2541,20,0.00786125,435.758,0.00196531,108.94,NaN
62243.8,24.2251,19.9995,0.00783401,437.459,0.0019585,109.365,NaN
62495.7,24.2284,19.9999,0.00780258,439.429,0.00195064,109.857,NaN
62715.7,24.2451,19.9998,0.00777512,441.142,0.00194378,110.286,NaN
63001.4,24.2663,19.9999,0.00773924,443.358,0.00193481,110.84,NaN
63244,24.2261,19.9995,0.00770856,445.232,0.00192714,111.308,NaN
63455.6,24.2459,19.9999,0.00768193,446.86,0.00192048,111.715,NaN
63698.4,24.2299,20,0.00765158,448.722,0.00191289,112.181,NaN
64011.8,24.2312,20.0002,0.00761257,451.114,0.00190314,112.779,NaN
64252.6,24.2531,19.9999,0.00758259,452.943,0.00189565,113.236,NaN
64472.5,24.2343,19.9997,0.00755519,454.608,0.0018888,113.652,NaN
64715.4,24.2345,19.9999,0.00752507,456.439,0.00188127,114.11,NaN
64983.4,24.2345,19.9997,0.00749155,458.451,0.00187289,114.613,NaN
65222.7,24.2466,20.0002,0.00746171,460.241,0.00186543,115.06,NaN
65491.2,24.2276,19.9998,0.0074282,462.24,0.00185705,115.56,NaN
65728.5,24.2236,19.9999,0.00739849,463.998,0.00184962,116,NaN
65975.5,24.2132,19.9999,0.00736781,465.823,0.00184195,116.456,NaN
66252.4,24.2293,19.9996,0.00733386,467.858,0.00183346,116.964,NaN
66455,24.2253,20,0.00730877,469.341,0.00182719,117.335,NaN
66658.1,24.1836,19.9999,0.00728406,470.823,0.00182102,117.706,NaN
66909.6,24.2096,20.0002,0.00725406,472.651,0.00181351,118.163,NaN
67149,24.1765,20,0.00722546,474.384,0.00180637,118.596,NaN
67327.2,24.2114,19.9997,0.00720445,475.67,0.00180111,118.918,NaN
67561.7,24.2346,19.9999,0.0071769,477.357,0.00179422,119.339,NaN
67776.1,24.2123,19.9995,0.00715066,478.892,0.00178766,119.723,NaN
68008.5,24.1896,19.9992,0.00712332,480.551,0.00178083,120.138,NaN
68239.8,24.2172,19.9995,0.00709622,482.195,0.00177405,120.549,NaN
68492.3,24.1761,19.9995,0.00706633,483.984,0.00176658,120.996,NaN
68691.4,24.1805,20.0001,0.00704334,485.388,0.00176084,121.347,NaN
68924.2,24.1936,19.9998,0.00701622,487.024,0.00175405,121.756,NaN
69153.1,24.2015,19.9996,0.00698979,488.627,0.00174745,122.157,NaN
69406.1,24.1734,19.9996,0.00696075,490.392,0.00174019,122.598,NaN
69651.7,24.143,19.9998,0.00693297,492.099,0.00173324,123.025,NaN
69906.9,24.166,19.9997,0.00690435,493.864,0.00172609,123.466,NaN
70145.9,24.1964,20,0.00687774,495.511,0.00171944,123.878,NaN
70366.5,24.1836,20.0003,0.00685305,497.025,0.00171326,124.256,NaN
70698,24.1993,20.0002,0.00681673,499.291,0.00170418,124.823,NaN
70991.6,24.1634,19.9999,0.00678468,501.288,0.00169617,125.322,NaN
71279.8,24.1888,19.9996,0.00675363,503.239,0.00168841,125.81,NaN
71490.1,24.1988,19.9997,0.0067309,504.657,0.00168272,126.164,NaN
71704.8,24.202,19.9997,0.00670827,506.099,0.00167707,126.525,NaN
71934.5,24.1497,19.9994,0.00668398,507.638,0.00167099,126.909,NaN
72142.8,24.1441,19.9997,0.0066622,509.027,0.00166555,127.257,NaN
72362.3,24.1856,19.9997,0.00663952,510.487,0.00165988,127.622,NaN
72600.4,24.1262,20.0001,0.00661486,512.065,0.00165372,128.016,NaN
72820.5,24.1587,19.9998,0.00659256,513.519,0.00164814,128.38,NaN
73020.6,24.1497,19.9998,0.00657231,514.836,0.00164308,128.709,NaN
73190.5,24.1561,19.9997,0.00655458,515.951,0.00163865,128.988,NaN
73458.8,24.1474,19.9995,0.00652751,517.706,0.00163188,129.427,NaN
73732.4,24.1368,19.9998,0.00650042,519.488,0.00162511,129.872,NaN
74016.4,24.1472,19.9996,0.00647191,521.33,0.00161798,130.333,NaN
74208.4,24.1383,19.9998,0.00645252,522.571,0.00161313,130.643,NaN
74452.4,24.1415,19.9999,0.00642825,524.143,0.00160706,131.036,NaN
74681.1,24.1809,19.9996,0.00640604,525.61,0.00160151,131.403,NaN
74990.2,24.1406,20.0008,0.00637557,527.586,0.00159389,131.896,NaN
75195,24.1289,19.9993,0.00635605,528.889,0.00158901,132.222,NaN
75381.3,24.1817,19.9998,0.00633816,530.072,0.00158454,132.518,NaN
75550.1,24.1293,20.0001,0.00632164,531.14,0.00158041,132.785,NaN
75764.5,24.1311,19.9997,0.00630136,532.494,0.00157534,133.123,NaN
75947.4,24.1232,19.9999,0.00628402,533.645,0.00157101,133.411,NaN
76184.1,24.1616,19.9998,0.00626192,535.129,0.00156548,133.782,NaN
76395.8,24.1345,19.9997,0.00624209,536.453,0.00156052,134.113,NaN
76613.5,24.1628,19.9998,0.00622153,537.81,0.00155538,134.452,NaN
76804,24.1915,19.9994,0.00620394,538.993,0.00155099,134.748,NaN
77019.2,24.1471,19.9993,0.00618421,540.326,0.00154605,135.081,NaN
77175.5,24.1107,19.9997,0.0061701,541.291,0.00154252,135.323,NaN
77407.6,24.1236,19.9998,0.00614896,542.721,0.00153724,135.68,NaN
77688.1,24.1175,19.9995,0.00612412,544.442,0.00153103,136.111,NaN
77928.9,24.1389,20.0002,0.00610254,545.914,0.00152564,136.479,NaN
78255.8,24.1127,19.9998,0.00607321,547.904,0.0015183,136.976,NaN
78512.9,24.1349,19.9997,0.00605016,549.463,0.00151254,137.366,NaN
78730.7,24.1151,19.9998,0.00603087,550.778,0.00150772,137.695,NaN
78963.4,24.1113,20.0003,0.00601068,552.179,0.00150267,138.045,NaN
79205.9,24.1023,20,0.0059891,553.634,0.00149728,138.409,NaN
79497.8,24.0961,19.9996,0.00596374,555.379,0.00149093,138.845,NaN
79777.3,24.1046,19.9997,0.00593919,557.042,0.0014848,139.261,NaN
79969.2,24.1017,19.9999,0.00592243,558.18,0.00148061,139.545,NaN
80249.9,24.0967,20.0004,0.00589804,559.839,0.00147451,139.96,NaN
80501.6,24.1133,19.9999,0.0058762,561.322,0.00146905,140.33,NaN
80723.7,24.1175,19.9996,0.00585735,562.624,0.00146434,140.656,NaN
80971.3,24.0741,19.9998,0.00583614,564.072,0.00145904,141.018,NaN
81213.2,24.1143,19.9998,0.00581577,565.481,0.00145394,141.37,NaN
81431.4,24.1318,19.9999,0.00579724,566.748,0.00144931,141.687,NaN
81627.7,24.1544,19.9995,0.00578083,567.885,0.00144521,141.971,NaN
81825.9,24.1542,19.9997,0.00576414,569.029,0.00144104,142.257,NaN
82024.4,24.0926,20.0001,0.00574761,570.171,0.0014369,142.543,NaN
82249.1,24.1369,20,0.00572883,571.461,0.00143221,142.865,NaN
82428.1,24.1007,19.9998,0.00571383,572.485,0.00142846,143.121,NaN
82663.8,24.109,20.0001,0.00569471,573.829,0.00142368,143.457,NaN
82888.3,24.1384,19.9997,0.00567631,575.106,0.00141908,143.776,NaN
83110.7,24.1239,19.9996,0.00565805,576.366,0.00141451,144.091,NaN
83375.1,24.1343,19.9999,0.00563673,577.859,0.00140918,144.465,NaN
83575.1,24.1193,20.0002,0.00562082,578.985,0.0014052,144.746,NaN
83791.8,24.1105,20.0005,0.00560364,580.201,0.00140091,145.05,NaN
84073.8,24.1398,19.9997,0.00558172,581.778,0.00139543,145.445,NaN
84326.1,24.1162,19.9999,0.00556156,583.184,0.00139039,145.796,NaN
84517.7,24.1374,19.9999,0.0055463,584.248,0.00138657,146.062,NaN
84737.8,24.1455,19.9999,0.00552916,585.467,0.00138229,146.367,NaN
85002.8,24.1281,19.9994,0.00550789,586.93,0.00137697,146.732,NaN
85215.7,24.1485,19.9997,0.00549114,588.1,0.00137278,147.025,NaN
85439.6,24.1604,19.9997,0.0054735,589.328,0.00136837,147.332,NaN
85679.5,24.1436,19.9999,0.00545453,590.639,0.00136363,147.66,NaN
85892.2,24.1312,19.9997,0.00543825,591.797,0.00135956,147.949,NaN
86149.2,24.1693,19.9999,0.0054186,593.192,0.00135465,148.298,NaN
86410.8,24.162,19.9997,0.0053984,594.607,0.0013496,148.652,NaN
86653.7,24.1324,19.9999,0.00538011,595.916,0.00134503,148.979,NaN
86859.8,24.1323,19.9995,0.00536426,597.023,0.00134107,149.256,NaN
87061,24.1362,19.9999,0.00534896,598.101,0.00133724,149.525,NaN
87315.2,24.1688,19.9998,0.00532968,599.458,0.00133242,149.865,NaN
87547.5,24.1371,20.0002,0.00531218,600.695,0.00132804,150.174,NaN
87741.8,24.136,20,0.00529744,601.725,0.00132436,150.431,NaN
87976.1,24.1024,20,0.00528039,602.964,0.0013201,150.741,NaN
88184.4,24.1772,19.9996,0.00526514,604.063,0.00131628,151.016,NaN
88453.8,24.1566,19.9999,0.00524523,605.478,0.00131131,151.37,NaN
88623.5,24.146,19.9995,0.00523261,606.367,0.00130815,151.592,NaN
88810.7,24.1724,19.9996,0.00521873,607.346,0.00130468,151.836,NaN
89082.8,24.1458,19.9997,0.00519821,608.763,0.00129955,152.191,NaN
89314,24.1546,19.9998,0.00518096,609.963,0.00129524,152.491,NaN
89592.7,24.1491,20,0.00516089,611.404,0.00129022,152.851,NaN
89761.7,24.1854,19.9998,0.00514892,612.275,0.00128723,153.069,NaN
89966.9,24.1831,19.9999,0.00513457,613.33,0.00128364,153.333,NaN
90184.3,24.1559,20.0001,0.00511934,614.445,0.00127983,153.611,NaN
90406.6,24.1449,20.0002,0.00510381,615.581,0.00127595,153.895,NaN
90643,24.1628,19.9999,0.00508753,616.786,0.00127188,154.196,NaN
90877.7,24.1732,19.9997,0.00507124,617.978,0.00126781,154.494,NaN
91141.9,24.1704,19.9998,0.00505338,619.316,0.00126335,154.829,NaN
91416.7,24.1717,20,0.0050347,620.701,0.00125867,155.175,NaN
91682.9,24.1737,20.0002,0.00501717,622.039,0.00125429,155.51,NaN
91925.3,24.1677,20.0003,0.00500129,623.254,0.00125032,155.813,NaN
92179.2,24.1653,19.9998,0.00498498,624.521,0.00124624,156.13,NaN
92415.2,24.1567,19.9997,0.00496964,625.696,0.00124241,156.424,NaN
92641.3,24.1779,19.9996,0.00495518,626.817,0.0012388,156.704,NaN
92868.6,24.1794,20,0.00494071,627.943,0.00123518,156.986,NaN
93101.5,24.1877,19.9998,0.00492597,629.092,0.00123149,157.273,NaN
93327.8,24.1865,19.9993,0.00491153,630.205,0.00122788,157.551,NaN
93561,24.1686,20,0.0048967,631.349,0.00122417,157.837,NaN
93827.7,24.175,19.9997,0.00488015,632.652,0.00122004,158.163,NaN
94073.4,24.1794,19.9993,0.00486504,633.849,0.00121626,158.462,NaN
94312.2,24.1825,19.9997,0.00485056,635.009,0.00121264,158.752,NaN
94563.6,24.1928,19.9998,0.00483535,636.227,0.00120884,159.057,NaN
94795.5,24.1615,19.9995,0.0048211,637.347,0.00120528,159.337,NaN
95039.5,24.1478,19.9996,0.00480649,638.521,0.00120162,159.63,NaN
95232,24.1737,19.9995,0.00479511,639.445,0.00119878,159.861,NaN
95530.2,24.1826,19.9999,0.00477769,640.872,0.00119442,160.218,NaN
95777.1,24.1804,19.9999,0.00476296,642.05,0.00119074,160.513,NaN
96035.5,24.2021,19.9996,0.00474791,643.279,0.00118698,160.82,NaN
96256.7,24.2088,20,0.00473503,644.328,0.00118376,161.082,NaN
96553.4,24.1818,20,0.004718,645.73,0.0011795,161.433,NaN
96811.9,24.1769,19.9994,0.00470302,646.948,0.00117576,161.737,NaN
97093.4,24.1996,20.0002,0.00468681,648.27,0.0011717,162.067,NaN
97326.1,24.172,19.9998,0.00467343,649.359,0.00116836,162.34,NaN
97593.4,24.2007,19.9996,0.00465837,650.606,0.00116459,162.651,NaN
97833,24.188,20,0.00464477,651.72,0.00116119,162.93,NaN
98107.7,24.192,19.9997,0.00462942,652.994,0.00115736,163.249,NaN
98406.5,24.2022,20.0003,0.00461312,654.375,0.00115328,163.594,NaN
98739.3,24.1981,19.9996,0.00459478,655.907,0.00114869,163.977,NaN
98990.4,24.1912,19.9996,0.00458102,657.059,0.00114526,164.265,NaN
99244.7,24.1716,19.9997,0.00456723,658.222,0.00114181,164.556,NaN
99535.6,24.2174,19.9997,0.00455157,659.549,0.00113789,164.887,NaN
99944.8,24.1916,19.9999,0.00452999,661.407,0.0011325,165.352,NaN
100260,24.1686,19.9997,0.00451377,662.833,0.00112844,165.708,NaN
100479,24.2073,19.9996,0.00450269,663.819,0.00112567,165.955,NaN
100699,24.1706,19.9994,0.00449145,664.81,0.00112286,166.202,NaN
101013,24.185,20.0001,0.00447581,666.216,0.00111895,166.554,NaN
101217,24.1937,19.9999,0.0044652,667.13,0.0011163,166.782,NaN
101485,24.1972,20,0.00445167,668.322,0.00111292,167.08,NaN
101772,24.1835,19.9997,0.00443688,669.6,0.00110922,167.4,NaN
102007,24.18,19.9996,0.00442498,670.64,0.00110624,167.66,NaN
102344,24.1919,19.9998,0.00440786,672.127,0.00110197,168.032,NaN
102616,24.2259,19.9996,0.00439438,673.327,0.0010986,168.332,NaN
102922,24.1522,20.0001,0.00437773,674.667,0.00109443,168.667,NaN
103178,24.1622,19.9993,0.0043642,675.789,0.00109105,168.947,NaN
103367,24.1743,19.9998,0.00435433,676.61,0.00108858,169.152,NaN
103651,24.1783,20.0003,0.00434018,677.844,0.00108505,169.461,NaN
103971,24.1747,19.9998,0.00432467,679.231,0.00108117,169.808,NaN
104209,24.1978,20,0.00431322,680.257,0.0010783,170.064,NaN
104460,24.2041,19.9998,0.00430098,681.342,0.00107524,170.336,NaN
104843,24.1769,19.9998,0.00428296,682.985,0.00107074,170.746,NaN
105105,24.2033,19.9994,0.00427118,684.107,0.0010678,171.027,NaN
105319,24.3788,20,0.00426121,685.016,0.0010653,171.254,NaN
105556,24.2865,19.9999,0.00425038,686.025,0.00106259,171.506,NaN
105912,24.3163,20.0001,0.00423462,687.536,0.00105866,171.884,NaN
106150,24.3259,19.9999,0.00422463,688.543,0.00105616,172.136,NaN
106333,24.3435,20.0007,0.00421665,689.317,0.00105416,172.329,NaN
106593,24.3268,19.9999,0.00420532,690.412,0.00105133,172.603,NaN
106836,24.2884,19.9994,0.00419496,691.432,0.00104874,172.858,NaN
107132,24.2917,19.9999,0.00418197,692.67,0.00104549,173.168,NaN
107471,24.2764,19.9995,0.0041676,694.088,0.0010419,173.522,NaN
107750,24.256,19.9999,0.00415636,695.249,0.00103909,173.812,NaN
107994,24.2792,19.9993,0.00414599,696.262,0.0010365,174.065,NaN
108296,24.2407,19.9999,0.00413366,697.512,0.00103341,174.378,NaN
108579,24.2629,19.9994,0.00412208,698.679,0.00103052,174.67,NaN
108811,24.2377,19.9998,0.00411252,699.633,0.00102813,174.908,NaN
109036,24.2415,20,0.004103,700.558,0.00102575,175.139,NaN
109335,24.2424,19.9993,0.00409065,701.783,0.00102266,175.446,NaN
109579,24.2553,20,0.00408027,702.78,0.00102007,175.695,NaN
109813,24.2485,19.9999,0.00407039,703.735,0.0010176,175.934,NaN
110098,24.2476,20.0002,0.00405795,704.893,0.00101449,176.223,NaN
110352,24.2385,20.0001,0.00404692,705.921,0.00101173,176.48,NaN
110625,24.2812,19.9998,0.00403511,707.024,0.00100878,176.756,NaN
110943,24.2398,19.9999,0.00402105,708.307,0.00100526,177.077,NaN
111272,24.2804,19.9997,0.00400683,709.624,0.00100171,177.406,NaN
111589,24.2314,20.0002,0.0039931,710.894,0.000998275,177.724,NaN
111886,24.2604,19.9997,0.0039801,712.08,0.000995025,178.02,NaN
112151,24.2613,19.9999,0.00396861,713.13,0.000992152,178.282,NaN
112444,24.26,19.9997,0.00395574,714.291,0.000988935,178.573,NaN
112760,24.2914,19.9998,0.00394201,715.541,0.000985503,178.885,NaN
112977,24.3774,19.9998,0.00393245,716.395,0.000983113,179.099,NaN
113261,24.3191,19.9997,0.00392006,717.511,0.000980016,179.378,NaN
113533,24.2521,19.9997,0.00390818,718.573,0.000977044,179.643,NaN
113808,24.3007,19.9996,0.00389677,719.648,0.000974193,179.912,NaN
114098,24.2787,20,0.00388425,720.775,0.000971062,180.194,NaN
114391,24.2673,19.9995,0.00387142,721.911,0.000967855,180.478,NaN
114790,24.2617,19.9997,0.0038536,723.454,0.000963399,180.863,NaN
115065,24.2501,20.0003,0.00384144,724.512,0.00096036,181.128,NaN
115343,24.284,19.9999,0.00382895,725.576,0.000957237,181.394,NaN
115577,24.2336,19.9999,0.003819,726.474,0.000954751,181.618,NaN
115747,24.2222,19.9999,0.00381163,727.119,0.000952907,181.78,NaN
116134,24.2205,20.0003,0.00379453,728.593,0.000948632,182.148,NaN
116365,24.221,20,0.00378401,729.467,0.000946003,182.367,NaN
116624,24.2443,20.0003,0.00377253,730.445,0.000943133,182.611,NaN
116929,24.2303,19.9998,0.00375896,731.594,0.00093974,182.899,NaN
117221,24.2339,20.0001,0.00374575,732.689,0.000936438,183.172,NaN
117541,24.2135,20.0001,0.00373159,733.888,0.000932897,183.472,NaN
117845,24.1905,20,0.00371793,735.021,0.000929482,183.755,NaN
118104,24.1987,19.9996,0.00370605,735.979,0.000926512,183.995,NaN
118331,24.1975,19.9999,0.00369542,736.821,0.000923854,184.205,NaN
118622,24.2154,20,0.00368213,737.893,0.000920532,184.473,NaN
118904,24.1895,20,0.00366936,738.929,0.000917339,184.732,NaN
119155,24.1977,19.9998,0.0036578,739.852,0.000914449,184.963,NaN
119456,24.1861,20.0001,0.00364379,740.948,0.000910947,185.237,NaN
119681,24.2069,19.9995,0.00363305,741.768,0.000908263,185.442,NaN
119878,24.1747,19.9997,0.00362377,742.481,0.000905943,185.62,NaN
120185,24.1824,19.9998,0.00360944,743.593,0.000902361,185.898,NaN
120478,24.1786,19.9999,0.00359558,744.649,0.000898895,186.162,NaN
120803,24.1687,19.9994,0.00358016,745.815,0.00089504,186.454,NaN
121008,24.1697,19.9998,0.00357079,746.547,0.000892698,186.637,NaN
121244,24.1718,19.9998,0.00355987,747.39,0.000889969,186.848,NaN
121506,24.1764,20.0004,0.00354721,748.319,0.000886803,187.08,NaN
121809,24.1754,19.9999,0.00353266,749.392,0.000883164,187.348,NaN
122053,24.1406,20.0001,0.00352059,750.253,0.000880148,187.563,NaN
122245,24.1473,20,0.0035112,750.927,0.0008778,187.732,NaN
122487,24.2106,19.9998,0.00349909,751.777,0.000874772,187.944,NaN
122766,24.1671,20.0001,0.00348512,752.75,0.000871281,188.187,NaN
123047,24.1518,19.9997,0.0034712,753.73,0.000867799,188.432,NaN
123310,24.1523,19.9999,0.00345848,754.639,0.00086462,188.66,NaN
123554,24.1657,19.9994,0.00344653,755.481,0.000861633,188.87,NaN
123800,24.1471,19.9996,0.00343475,756.328,0.000858687,189.082,NaN
124064,24.1515,19.9992,0.00342178,757.232,0.000855445,189.308,NaN
124293,24.1561,19.9996,0.00341065,758.014,0.000852662,189.504,NaN
124559,24.1464,19.9998,0.00339719,758.921,0.000849296,189.73,NaN
124858,24.148,19.9998,0.00338272,759.933,0.00084568,189.983,NaN
125085,24.1933,19.9999,0.00337184,760.7,0.000842961,190.175,NaN
125310,24.1521,20.0001,0.00336078,761.459,0.000840196,190.365,NaN
125578,24.1326,20.0004,0.00334756,762.356,0.00083689,190.589,NaN
125848,24.1457,20.0001,0.00333415,763.259,0.000833536,190.815,NaN
126199,24.1346,20,0.00331686,764.426,0.000829216,191.106,NaN
126445,24.136,19.9998,0.003305,765.241,0.000826249,191.31,NaN
126744,24.1555,19.9997,0.00329026,766.226,0.000822564,191.556,NaN
127055,24.1342,20.0002,0.00327509,767.248,0.000818773,191.812,NaN
127315,24.1542,20,0.00326255,768.099,0.000815637,192.025,NaN
127682,24.1429,19.9989,0.00324523,769.292,0.000811309,192.323,NaN
127936,24.1538,19.9994,0.00323306,770.115,0.000808264,192.529,NaN
128195,24.1336,19.9998,0.00322116,770.952,0.000805289,192.738,NaN
128577,24.1159,20.0003,0.00320396,772.177,0.000800989,193.044,NaN
128859,24.1438,19.9996,0.00319127,773.079,0.000797817,193.27,NaN
129025,24.1591,19.9999,0.00318408,773.607,0.000796019,193.402,NaN
129314,24.1362,19.9999,0.00317134,774.527,0.000792834,193.632,NaN
129518,24.1465,19.9998,0.00316228,775.173,0.000790571,193.793,NaN
129793,24.1561,20,0.00315064,776.043,0.000787661,194.011,NaN
130052,24.1486,19.9998,0.00313958,776.857,0.000784896,194.214,NaN
130413,24.1252,20,0.00312416,777.985,0.000781041,194.496,NaN
130670,24.1308,19.9996,0.00311337,778.788,0.000778343,194.697,NaN
131039,24.1271,19.9997,0.00309826,779.933,0.000774564,194.983,NaN
131273,24.1333,19.9992,0.00308875,780.659,0.000772188,195.165,NaN
131541,24.1311,19.9997,0.00307815,781.484,0.000769537,195.371,NaN
131887,24.1557,19.9998,0.00306494,782.548,0.000766236,195.637,NaN
132216,24.1376,19.9993,0.00305255,783.552,0.000763138,195.888,NaN
132491,24.1313,19.9996,0.00304226,784.39,0.000760564,196.097,NaN
132760,24.1008,19.9999,0.00303242,785.208,0.000758105,196.302,NaN
133039,24.1289,19.9998,0.0030222,786.053,0.000755551,196.513,NaN
133266,24.1086,20.0001,0.0030137,786.738,0.000753426,196.684,NaN
133566,24.1285,19.9994,0.00300258,787.64,0.000750644,196.91,NaN
133907,24.126,19.9999,0.00299009,788.661,0.000747523,197.165,NaN
134138,24.1241,19.9998,0.00298199,789.351,0.000745498,197.338,NaN
134367,24.0999,19.9996,0.00297398,790.035,0.000743496,197.509,NaN
134685,24.0795,20,0.00296338,790.977,0.000740845,197.744,NaN
134933,24.0698,19.9999,0.00295497,791.713,0.000738742,197.928,NaN
135232,24.0887,20.0002,0.00294531,792.594,0.000736328,198.149,NaN
135566,24.074,20.0001,0.00293414,793.575,0.000733535,198.394,NaN
135853,24.1022,19.9998,0.00292483,794.416,0.000731208,198.604,NaN
136069,24.1004,19.9996,0.00291714,795.049,0.000729285,198.762,NaN
136311,24.0633,19.9998,0.00290907,795.754,0.000727267,198.938,NaN
136558,24.0812,19.9998,0.00290121,796.469,0.000725302,199.117,NaN
136815,24.0897,19.9999,0.00289333,797.216,0.000723333,199.304,NaN
137116,24.0879,19.9996,0.00288414,798.085,0.000721034,199.521,NaN
137276,24.0576,19.9995,0.00287942,798.545,0.000719856,199.636,NaN
137530,24.0973,19.9997,0.00287177,799.276,0.000717944,199.819,NaN
137747,24.0644,20.0001,0.00286526,799.898,0.000716314,199.974,NaN
138051,24.062,20,0.0028561,800.768,0.000714024,200.192,NaN
138237,24.1066,20,0.00285076,801.3,0.00071269,200.325,NaN
138462,24.0814,19.9998,0.00284412,801.938,0.00071103,200.484,NaN
138832,24.0829,20,0.00283341,802.988,0.000708352,200.747,NaN
139036,24.0957,19.9998,0.00282702,803.567,0.000706756,200.892,NaN
139224,24.086,19.9998,0.00282158,804.099,0.000705395,201.025,NaN
139518,24.057,19.9999,0.00281306,804.925,0.000703264,201.231,NaN
139739,24.0736,19.9998,0.00280694,805.547,0.000701734,201.387,NaN
139974,24.08,19.9995,0.00280029,806.205,0.000700073,201.551,NaN
140261,24.0647,19.9996,0.00279235,807.009,0.000698086,201.752,NaN
140492,24.0676,19.9995,0.00278579,807.652,0.000696448,201.913,NaN
140757,24.0333,20,0.0027781,808.389,0.000694524,202.097,NaN
140988,24.0775,20,0.00277157,809.032,0.000692892,202.258,NaN
141259,24.0647,19.9997,0.00276394,809.78,0.000690985,202.445,NaN
141521,24.0342,20,0.00275654,810.504,0.000689134,202.626,NaN
141875,24.0532,19.9998,0.00274708,811.479,0.000686771,202.87,NaN
142134,24.0194,19.9997,0.00273947,812.189,0.000684869,203.047,NaN
142449,24.0657,19.9995,0.00273083,813.051,0.000682707,203.263,NaN
142663,24.0437,19.9998,0.002725,813.633,0.000681249,203.408,NaN
142944,24.0637,19.9999,0.00271797,814.4,0.000679494,203.6,NaN
143230,24.0983,19.9996,0.00271029,815.175,0.000677572,203.794,NaN
143384,24.0429,19.9995,0.00270634,815.593,0.000676584,203.898,NaN
143725,24.0434,20,0.00269692,816.513,0.00067423,204.128,NaN
144039,24.0537,19.9998,0.0026888,817.358,0.000672199,204.339,NaN
144233,24.0615,19.9989,0.00268358,817.88,0.000670895,204.47,NaN
144494,23.9973,19.9998,0.00267664,818.581,0.00066916,204.645,NaN
144758,24.0503,20.0001,0.00266994,819.285,0.000667485,204.821,NaN
144990,24.0197,19.9996,0.00266411,819.904,0.000666028,204.976,NaN
145186,24.0544,19.9994,0.00265896,820.426,0.00066474,205.107,NaN
145433,24.0331,20.0005,0.00265265,821.082,0.000663163,205.271,NaN
145717,24.0208,20.0002,0.00264525,821.833,0.000661313,205.458,NaN
145921,24.0074,20.0001,0.00263991,822.374,0.000659978,205.594,NaN
146258,24.0298,20.0001,0.00263098,823.26,0.000657745,205.815,NaN
146505,24.0543,19.9999,0.00262448,823.909,0.000656119,205.977,NaN
146779,24.0415,19.9999,0.00261718,824.629,0.000654295,206.157,NaN
147049,24.0231,19.9993,0.00261009,825.333,0.000652523,206.333,NaN
147391,23.9925,20,0.00260162,826.226,0.000650405,206.556,NaN
147613,24.0223,19.9999,0.00259621,826.803,0.000649052,206.701,NaN
147862,24.0224,20,0.0025901,827.449,0.000647524,206.862,NaN
148135,24.0535,19.9998,0.00258325,828.154,0.000645811,207.038,NaN
148443,24.0045,19.9997,0.00257554,828.95,0.000643885,207.237,NaN
148738,24.0066,19.9998,0.00256857,829.706,0.000642141,207.427,NaN
149018,23.9981,19.9998,0.0025617,830.425,0.000640424,207.606,NaN
149329,23.9905,19.9999,0.00255392,831.22,0.00063848,207.805,NaN
149630,23.9945,19.9998,0.00254665,831.988,0.000636662,207.997,NaN
150017,24.0211,19.9998,0.00253677,832.973,0.000634192,208.243,NaN
150291,24.01,19.9997,0.00253028,833.667,0.000632569,208.417,NaN
150551,23.9957,20,0.00252398,834.322,0.000630995,208.581,NaN
150841,24.0213,19.9995,0.00251704,835.054,0.00062926,208.763,NaN
151206,24.0239,19.9997,0.00250819,835.972,0.000627047,208.993,NaN
151461,23.9865,19.9994,0.00250213,836.611,0.000625533,209.153,NaN
151713,23.9752,19.9994,0.00249625,837.24,0.000624062,209.31,NaN
151900,23.9873,19.9998,0.00249173,837.705,0.000622933,209.426,NaN
152216,23.9914,19.9997,0.00248404,838.493,0.000621011,209.623,NaN
152464,23.9941,19.9998,0.00247848,839.109,0.00061962,209.777,NaN
152679,24.0034,19.9998,0.00247365,839.64,0.000618412,209.91,NaN
153019,23.985,19.9999,0.00246644,840.48,0.000616611,210.12,NaN
153297,23.9739,19.9998,0.00246046,841.166,0.000615115,210.291,NaN
153556,24.0056,19.9997,0.00245478,841.801,0.000613695,210.45,NaN
153862,24.008,20.0002,0.00244844,842.551,0.000612111,210.638,NaN
154121,23.9752,19.9995,0.00244312,843.185,0.000610781,210.796,NaN
154424,23.9469,19.9997,0.00243656,843.923,0.00060914,210.981,NaN
154683,23.9985,19.9997,0.00243117,844.554,0.000607793,211.138,NaN
154958,23.9382,20,0.00242501,845.221,0.000606251,211.305,NaN
155208,23.9693,20.0001,0.00241959,845.828,0.000604899,211.457,NaN
155506,23.9493,19.9997,0.00241339,846.547,0.000603349,211.637,NaN
155830,23.9613,19.9995,0.00240638,847.328,0.000601594,211.832,NaN
156073,23.9605,19.9997,0.00240118,847.913,0.000600296,211.978,NaN
156395,23.9556,19.9996,0.00239451,848.686,0.000598627,212.172,NaN
156629,23.9688,19.9995,0.00238938,849.244,0.000597345,212.311,NaN
156856,23.9574,19.999,0.0023845,849.787,0.000596125,212.447,NaN
157210,23.9979,19.9998,0.00237772,850.629,0.000594429,212.657,NaN
157470,23.9675,19.9999,0.00237228,851.248,0.000593069,212.812,NaN
157743,23.9289,19.9995,0.00236721,851.893,0.000591804,212.973,NaN
157956,23.957,19.9996,0.00236326,852.398,0.000590815,213.1,NaN
158199,23.9803,19.9995,0.00235792,852.973,0.00058948,213.243,NaN
158506,23.9369,19.9993,0.00235172,853.695,0.000587929,213.424,NaN
158796,23.9566,20.0003,0.00234622,854.375,0.000586555,213.594,NaN
159074,23.936,19.9996,0.00234141,855.026,0.000585353,213.757,NaN
159350,23.917,19.9998,0.00233598,855.673,0.000583995,213.918,NaN
159609,23.9265,20,0.00233082,856.276,0.000582706,214.069,NaN
159892,23.9169,20,0.00232541,856.936,0.000581352,214.234,NaN
160215,23.9229,19.9997,0.00231934,857.685,0.000579834,214.421,NaN
160480,23.9183,19.9999,0.00231449,858.301,0.000578622,214.575,NaN
160724,23.8968,19.9999,0.00231001,858.864,0.000577502,214.716,NaN
160995,23.9135,19.9998,0.00230502,859.489,0.000576254,214.872,NaN
161250,23.9463,20,0.00229977,860.076,0.000574942,215.019,NaN
161517,23.9641,19.9999,0.00229478,860.69,0.000573696,215.172,NaN
161787,23.9139,20.0001,0.00228936,861.308,0.000572339,215.327,NaN
162037,23.907,20.0002,0.00228438,861.881,0.000571096,215.47,NaN
162265,23.8903,20,0.00228006,862.402,0.000570016,215.6,NaN
162572,23.8759,19.9995,0.00227452,863.101,0.00056863,215.775,NaN
162790,23.9133,19.9998,0.00227042,863.596,0.000567605,215.899,NaN
163029,23.8884,19.9995,0.00226577,864.137,0.000566442,216.034,NaN
163402,23.8711,19.9998,0.00225925,864.98,0.000564812,216.245,NaN
163620,23.8889,20.0001,0.00225558,865.473,0.000563896,216.368,NaN
163887,23.9196,20,0.00225101,866.075,0.000562753,216.519,NaN
164169,23.8562,20.0002,0.00224637,866.708,0.000561592,216.677,NaN
164444,23.8353,19.9998,0.00224132,867.326,0.000560329,216.832,NaN
164820,23.8737,20,0.0022347,868.169,0.000558675,217.042,NaN
165021,23.8798,19.9998,0.00223112,868.616,0.000557781,217.154,NaN
165338,23.8713,19.9999,0.00222529,869.323,0.000556323,217.331,NaN
165598,23.8634,19.9998,0.0022211,869.9,0.000555276,217.475,NaN
165908,23.8472,19.9996,0.00221602,870.588,0.000554004,217.647,NaN
166152,23.8495,19.9995,0.00221176,871.129,0.00055294,217.782,NaN
166358,23.8339,19.9996,0.0022084,871.585,0.0005521,217.896,NaN
166631,23.8582,19.9999,0.00220395,872.186,0.000550987,218.046,NaN
166935,23.8597,19.9995,0.00219902,872.857,0.000549755,218.214,NaN
167224,23.8361,20,0.00219412,873.492,0.000548531,218.373,NaN
167532,23.8329,19.9994,0.00218936,874.167,0.00054734,218.542,NaN
167785,23.8366,19.9999,0.00218506,874.719,0.000546265,218.68,NaN
168066,23.8109,19.9997,0.00217999,875.332,0.000544996,218.833,NaN
168284,23.8358,19.9996,0.00217612,875.808,0.000544031,218.952,NaN
168517,23.8639,19.9998,0.00217239,876.313,0.000543098,219.078,NaN
168813,23.8423,20,0.00216822,876.957,0.000542054,219.239,NaN
169036,23.815,19.9996,0.00216491,877.439,0.000541228,219.36,NaN
169283,23.8726,19.9998,0.00216124,877.974,0.00054031,219.494,NaN
169516,23.8433,19.9996,0.00215775,878.478,0.000539437,219.619,NaN
169755,23.8457,20.0001,0.00215377,878.991,0.000538442,219.748,NaN
169943,23.8425,20.0003,0.00215075,879.396,0.000537688,219.849,NaN
170176,23.8633,20.0001,0.00214714,879.898,0.000536784,219.975,NaN
170427,23.8374,19.9996,0.00214249,880.436,0.000535621,220.109,NaN
170612,23.8594,19.9999,0.00213962,880.832,0.000534904,220.208,NaN
170877,23.8661,19.9999,0.00213566,881.399,0.000533914,220.35,NaN
171124,23.8949,19.9997,0.00213161,881.926,0.000532903,220.482,NaN
171378,23.8669,20,0.00212839,882.466,0.000532099,220.616,NaN
171656,23.8888,20.0001,0.00212409,883.057,0.000531023,220.764,NaN
171903,23.8893,19.9998,0.00212045,883.581,0.000530113,220.895,NaN
172161,23.8605,20.0001,0.00211654,884.129,0.000529134,221.032,NaN
172435,23.8798,19.9996,0.00211261,884.708,0.000528154,221.177,NaN
172695,23.8808,20,0.00210902,885.257,0.000527256,221.314,NaN
172932,23.8329,20.0002,NaN,NaN,NaN,NaN,NaN
173192,23.8778,20.0001,NaN,NaN,NaN,NaN,NaN
173451,23.9215,19.9995,NaN,NaN,NaN,NaN,NaN
173755,23.8758,19.9999,NaN,NaN,NaN,NaN,NaN
174022,23.9315,19.9995,NaN,NaN,NaN,NaN,NaN
174262,23.8857,19.9999,NaN,NaN,NaN,NaN,NaN
174625,23.8725,19.9995,NaN,NaN,NaN,NaN,NaN
174851,23.9233,20,NaN,NaN,NaN,NaN,NaN
175380,23.9117,19.9995,NaN,NaN,NaN,NaN,NaN
175764,23.868,20.0001,NaN,NaN,NaN,NaN,NaN
175978,23.8805,19.9999,NaN,NaN,NaN,NaN,NaN
176451,23.9336,19.9996,NaN,NaN,NaN,NaN,NaN
176786,23.9433,19.9995,NaN,NaN,NaN,NaN,NaN
177132,23.9328,19.9997,NaN,NaN,NaN,NaN,NaN
177423,23.9185,19.9995,NaN,NaN,NaN,NaN,NaN
177749,23.9398,20.0008,NaN,NaN,NaN,NaN,NaN
178030,23.9268,20.0002,NaN,NaN,NaN,NaN,NaN
178398,23.9626,19.9999,NaN,NaN,NaN,NaN,NaN
178694,23.947,19.9996,NaN,NaN,NaN,NaN,NaN
178999,23.9802,20,NaN,NaN,NaN,NaN,NaN
179273,23.9837,20.0002,NaN,NaN,NaN,NaN,NaN
179587,23.9475,20.0001,NaN,NaN,NaN,NaN,NaN
180133,23.9661,19.9993,NaN,NaN,NaN,NaN,NaN
180501,23.9762,19.9994,NaN,NaN,NaN,NaN,NaN
180783,23.9709,20,NaN,NaN,NaN,NaN,NaN
181058,23.9552,19.9997,NaN,NaN,NaN,NaN,NaN
181331,23.9834,19.9998,NaN,NaN,NaN,NaN,NaN
181593,23.9863,19.9997,NaN,NaN,NaN,NaN,NaN
181828,23.9835,19.9994,NaN,NaN,NaN,NaN,NaN
182092,24.0152,19.9999,NaN,NaN,NaN,NaN,NaN
182449,23.985,19.9997,NaN,NaN,NaN,NaN,NaN
182734,23.956,19.9998,NaN,NaN,NaN,NaN,NaN
183081,23.9801,19.9998,NaN,NaN,NaN,NaN,NaN
183382,23.9303,20,NaN,NaN,NaN,NaN,NaN
183813,23.9884,20.0004,NaN,NaN,NaN,NaN,NaN
184099,24.0061,20.0002,NaN,NaN,NaN,NaN,NaN
184381,23.9711,19.9997,NaN,NaN,NaN,NaN,NaN
184649,23.9796,20.0002,NaN,NaN,NaN,NaN,NaN
185008,23.991,19.9993,NaN,NaN,NaN,NaN,NaN
185246,24.0499,19.9996,NaN,NaN,NaN,NaN,NaN
185526,24.0338,20.0006,NaN,NaN,NaN,NaN,NaN
185936,24.1268,19.9998,NaN,NaN,NaN,NaN,NaN
186194,24.1635,19.9997,NaN,NaN,NaN,NaN,NaN
186435,24.1889,20.0003,NaN,NaN,NaN,NaN,NaN