File: TAInstCalorimetry/DATA/myexp3.csv
Time,Temperature [AmbientT(Therm3T)],Temperature [Temperature],Heat flow [Signal],Heat [Signal],Normalized heat flow [Signal],Normalized heat [Signal],Time markers
0.0,24.169,19.9997,NaN,NaN,NaN,NaN,Reaction start
32.0905,24.1369,19.9998,0.000909726,0.00311611,0.000227431,0.000779028,NaN
75.0905,24.1614,19.9998,0.0406934,0.753941,0.0101733,0.188485,NaN
114.091,24.1573,19.9998,0.0767094,3.11159,0.0191773,0.777898,NaN
154.653,24.2303,20.0003,0.0939823,6.63128,0.0234956,1.65782,NaN
214.591,24.1703,20.0004,0.0981586,12.4709,0.0245397,3.11771,NaN
319.966,24.189,19.9999,0.0870225,22.2995,0.0217556,5.57488,NaN
452.341,24.179,19.9999,0.0723739,32.7866,0.0180935,8.19664,NaN
602.591,24.1922,20.0003,0.0613147,42.8155,0.0153287,10.7039,NaN
761.341,24.2194,19.9999,0.0463916,51.3976,0.0115979,12.8494,NaN
916.403,24.1838,20.0004,0.0334386,57.5334,0.00835965,14.3834,NaN
1090.29,24.1612,19.9997,0.0236578,62.4333,0.00591445,15.6083,NaN
1292.98,24.1655,20.0002,0.0165804,66.4519,0.00414511,16.613,NaN
1514.59,24.1724,19.9999,0.0118656,69.5613,0.0029664,17.3903,NaN
1766.43,24.1502,19.9995,0.00860477,72.1048,0.00215119,18.0262,NaN
2079.83,24.1462,19.9998,0.00620871,74.3914,0.00155218,18.5979,NaN
2435.84,24.1435,19.9999,0.00464342,76.2976,0.00116086,19.0744,NaN
2848.77,24.1368,19.9996,0.00359902,77.9795,0.000899756,19.4949,NaN
3343.74,24.1213,19.9997,0.00287895,79.5671,0.000719736,19.8918,NaN
3848.4,24.0672,19.9997,0.00243905,80.9001,0.000609763,20.225,NaN
4373.4,24.1187,19.9999,0.00214509,82.0986,0.000536271,20.5247,NaN
4971.65,24.0771,19.9998,0.00191956,83.3099,0.00047989,20.8275,NaN
5552.28,24.0958,20,0.00177126,84.3785,0.000442814,21.0946,NaN
6105.18,24.0901,19.9998,0.00167621,85.3299,0.000419052,21.3325,NaN
6738.81,24.1088,19.9998,0.00160613,86.3678,0.000401533,21.5919,NaN
7573.81,24.0975,20,0.00156257,87.6876,0.000390643,21.9219,NaN
8245.74,24.1044,19.9999,0.00155009,88.7331,0.000387522,22.1833,NaN
8857.28,24.1222,19.9996,0.00157908,89.684,0.000394769,22.421,NaN
9385.39,24.1254,19.9998,0.00170144,90.5483,0.00042536,22.6371,NaN
9986.25,24.0935,20.0002,0.0018458,91.615,0.000461451,22.9037,NaN
10539.1,24.1117,19.9997,0.00196267,92.6683,0.000490667,23.1671,NaN
11115.2,24.12,19.9996,0.00207835,93.8324,0.000519588,23.4581,NaN
11739.1,24.1014,19.9999,0.0022056,95.1685,0.000551399,23.7921,NaN
12344.9,24.1208,19.9996,0.00233428,96.5433,0.000583569,24.1358,NaN
12974.6,24.1061,19.9998,0.00247537,98.0573,0.000618841,24.5143,NaN
13653.5,24.1087,19.9997,0.00263579,99.7919,0.000658948,24.948,NaN
14285.6,24.1143,19.9997,0.00279185,101.507,0.000697962,25.3768,NaN
14913.7,24.0975,20.0001,0.00295337,103.311,0.000738342,25.8277,NaN
15416.6,24.0982,19.9998,0.00308735,104.83,0.000771837,26.2075,NaN
16182.3,24.0944,20.0004,0.00329827,107.274,0.000824568,26.8185,NaN
16887,24.1258,19.9996,0.00350039,109.669,0.000875098,27.4172,NaN
17511.7,24.086,20.0002,0.00368556,111.913,0.000921389,27.9784,NaN
18106,24.095,19.9991,0.00386478,114.158,0.000966196,28.5394,NaN
18619.1,24.099,20.0002,0.00402216,116.18,0.00100554,29.0451,NaN
19410.5,24.0734,19.9999,0.00427037,119.461,0.00106759,29.8653,NaN
20018,24.0445,19.9995,0.00446559,122.114,0.0011164,30.5286,NaN
20548.7,24.0755,20.0001,0.0046387,124.53,0.00115968,31.1326,NaN
21240.1,24.0553,19.9999,0.00486942,127.817,0.00121736,31.9543,NaN
22132.2,24.0904,20.0001,0.00517115,132.295,0.00129279,33.0739,NaN
22927.8,24.0553,19.9999,0.00544258,136.517,0.00136064,34.1293,NaN
23582.5,24.0341,19.9996,0.00566653,140.154,0.00141663,35.0384,NaN
24241,24.0419,19.9998,0.00589131,143.959,0.00147283,35.9898,NaN
24864,24.005,19.9996,0.00610261,147.695,0.00152565,36.9238,NaN
25506.5,24.0006,19.9991,0.00631837,151.686,0.00157959,37.9215,NaN
26173.9,23.9791,20,0.00654026,155.977,0.00163507,38.9943,NaN
26764.3,23.9973,19.9995,0.00673282,159.895,0.0016832,39.9738,NaN
27407.2,23.9715,19.9995,0.00693891,164.29,0.00173473,41.0725,NaN
28040.1,24.0212,20.0001,0.00713655,168.745,0.00178414,42.1861,NaN
28547.4,23.9759,19.9998,0.00729112,172.404,0.00182278,43.1011,NaN
29256.2,23.9768,19.9997,0.00749917,177.646,0.00187479,44.4116,NaN
29900,23.9532,19.9996,0.00768051,182.533,0.00192013,45.6334,NaN
30574.5,23.959,20.0001,0.00786091,187.775,0.00196523,46.9439,NaN
31094,23.9469,19.9995,0.00799326,191.894,0.00199831,47.9736,NaN
31709.9,23.9396,19.9994,0.00814128,196.863,0.00203532,49.2158,NaN
32349.7,23.9487,19.9999,0.0082854,202.118,0.00207135,50.5296,NaN
32985.4,23.9589,19.9999,0.00841733,207.429,0.00210433,51.8571,NaN
33663,23.9076,19.9995,0.00854581,213.176,0.00213645,53.294,NaN
34225.1,23.9744,19.999,0.0086423,218.007,0.00216057,54.5017,NaN
34844,23.9275,19.9999,0.00873874,223.386,0.00218469,55.8465,NaN
35498.5,23.9564,19.9998,0.00882939,229.136,0.00220735,57.284,NaN
36179.3,23.9456,19.9995,0.00891105,235.175,0.00222776,58.7938,NaN
36812.2,23.9366,19.9998,0.00897625,240.836,0.00224406,60.2091,NaN
37444.3,23.9489,19.9998,0.00902914,246.528,0.00225728,61.632,NaN
38081.1,23.9527,19.9997,0.00906936,252.291,0.00226734,63.0727,NaN
38644.2,23.9543,19.9998,0.00909696,257.406,0.00227424,64.3515,NaN
39288.1,23.9424,19.9995,0.00911981,263.271,0.00227995,65.8178,NaN
39927.5,23.9438,19.9996,0.00913434,269.108,0.00228358,67.2769,NaN
40625.5,23.9406,19.9998,0.00913956,275.486,0.00228489,68.8715,NaN
41257.4,23.9213,19.9998,0.00913563,281.26,0.00228391,70.315,NaN
41750.3,23.9614,19.9997,0.00912758,285.761,0.00228189,71.4403,NaN
42340.4,23.9594,19.9997,0.0091126,291.144,0.00227815,72.786,NaN
43041.8,23.9459,20.0004,0.00908745,297.527,0.00227186,74.3818,NaN
43936.9,23.9516,20.0001,0.00904602,305.643,0.00226151,76.4108,NaN
44521.7,23.9406,20.0003,0.00901391,310.924,0.00225348,77.731,NaN
45204.6,23.9645,19.9995,0.00897467,317.067,0.00224367,79.2667,NaN
45737.4,23.9471,19.9997,0.00894345,321.84,0.00223586,80.4599,NaN
46349.5,23.9346,19.9998,0.00891301,327.304,0.00222825,81.826,NaN
46867.2,23.9133,20.0011,0.00889919,331.914,0.0022248,82.9784,NaN
47445.8,23.9723,20.0001,0.00890727,337.064,0.00222682,84.2661,NaN
47965.6,23.9519,20.0001,0.00894168,341.702,0.00223542,85.4255,NaN
48654.5,23.9555,19.9997,0.00900837,347.884,0.00225209,86.9711,NaN
49232.4,23.9303,20.0003,0.00905379,353.104,0.00226345,88.276,NaN
49886.7,23.9691,20,0.00908181,359.039,0.00227045,89.7598,NaN
50582.2,23.933,20,0.00909353,365.36,0.00227338,91.34,NaN
51302.4,23.9471,20,0.00909474,371.91,0.00227369,92.9776,NaN
51879.4,23.9699,19.9999,0.00908775,377.156,0.00227194,94.2891,NaN
52428.7,23.9338,19.9998,0.00907307,382.144,0.00226827,95.5361,NaN
53102,23.9599,19.9995,0.00904455,388.245,0.00226114,97.0612,NaN
53696.9,23.9574,19.9996,0.0090103,393.616,0.00225257,98.4039,NaN
54407.8,23.9484,20.0003,0.0089594,400.004,0.00223985,100.001,NaN
55030.3,23.9454,19.9997,0.00890669,405.564,0.00222667,101.391,NaN
55758.7,23.9164,19.9996,0.00883799,412.027,0.0022095,103.007,NaN
56354,23.9411,19.9999,0.00877499,417.27,0.00219375,104.318,NaN
57087,23.9441,19.9998,0.00869407,423.673,0.00217352,105.918,NaN
57748.4,23.924,19.9993,0.00861623,429.397,0.00215406,107.349,NaN
58323.3,23.9327,19.9998,0.00854524,434.331,0.00213631,108.583,NaN
59089.6,23.9167,20.0001,0.00844734,440.841,0.00211184,110.21,NaN
59608.1,23.9236,20,0.00837981,445.204,0.00209495,111.301,NaN
60163.3,23.9397,19.9998,0.00830838,449.837,0.00207709,112.459,NaN
60875.3,23.9245,20,0.00821648,455.719,0.00205412,113.93,NaN
61624.8,23.924,19.9998,0.00812114,461.842,0.00203029,115.46,NaN
62175,23.9362,19.9998,0.00805174,466.291,0.00201293,116.573,NaN
62815.8,23.91,19.9997,0.00797245,471.425,0.00199311,117.856,NaN
63520.5,23.8998,20.0004,0.00788806,477.013,0.00197202,119.253,NaN
64221,23.9226,20.0003,0.00780612,482.51,0.00195153,120.627,NaN
64861.8,23.9106,19.9998,0.00773293,487.488,0.00193323,121.872,NaN
65381.8,23.903,19.9997,0.0076759,491.495,0.00191897,122.874,NaN
66119,23.9044,19.9997,0.00759593,497.124,0.00189898,124.281,NaN
66820,23.8819,20,0.00752282,502.423,0.0018807,125.606,NaN
67422.2,23.9157,19.9999,0.00746097,506.934,0.00186524,126.734,NaN
68143.9,23.9002,20,0.00738861,512.293,0.00184715,128.073,NaN
68728.8,23.8946,20.0002,0.00733121,516.598,0.0018328,129.149,NaN
69319.5,23.896,19.9999,0.00727388,520.911,0.00181847,130.228,NaN
69974.9,23.8943,19.9998,0.00721224,525.658,0.00180306,131.415,NaN
70603.3,23.9013,19.9998,0.00715298,530.172,0.00178825,132.543,NaN
71376,23.8979,19.9995,0.00708017,535.671,0.00177004,133.918,NaN
72029,23.949,19.9999,0.00701809,540.274,0.00175452,135.068,NaN
72608.7,23.9147,19.9999,0.00696342,544.327,0.00174085,136.082,NaN
73179.9,23.8919,19.9997,0.00690849,548.288,0.00172712,137.072,NaN
73928.1,23.9101,19.9999,0.00683624,553.43,0.00170906,138.358,NaN
74450.1,23.8588,19.9998,0.00678554,556.985,0.00169638,139.246,NaN
74991,23.8903,20.0002,0.00673224,560.641,0.00168306,140.16,NaN
75642.6,23.8749,19.9995,0.00666648,565.007,0.00166662,141.252,NaN
76242.1,23.8819,19.9997,0.0066053,568.985,0.00165133,142.246,NaN
76789.7,23.8597,19.9998,0.00654928,572.587,0.00163732,143.147,NaN
77501.3,23.8636,19.9998,0.00647592,577.221,0.00161898,144.305,NaN
78211.9,23.8372,19.9999,0.00640154,581.796,0.00160038,145.449,NaN
78771.3,23.8443,20.0001,0.00634219,585.361,0.00158555,146.34,NaN
79373.3,23.8619,20,0.00627839,589.159,0.0015696,147.29,NaN
80231,23.8442,19.9998,0.00618681,594.505,0.0015467,148.626,NaN
80946.5,23.8635,20,0.00610958,598.904,0.00152739,149.726,NaN
81512.6,23.8708,19.9997,0.00604793,602.346,0.00151198,150.586,NaN
82129.7,23.8473,19.9999,0.00598116,606.057,0.00149529,151.514,NaN
82755.9,23.8457,19.9999,0.00591378,609.781,0.00147844,152.445,NaN
83484.8,23.8462,20.0001,0.00583495,614.063,0.00145874,153.516,NaN
84031.9,23.8663,20.0002,0.00577611,617.239,0.00144403,154.31,NaN
84586.8,23.835,19.9998,0.00571729,620.429,0.00142932,155.107,NaN
85352.9,23.8606,20.0002,0.00563616,624.777,0.00140904,156.194,NaN
85895.5,23.8819,19.9998,0.00557935,627.82,0.00139484,156.955,NaN
86472,23.8554,20.0002,0.00551899,631.019,0.00137975,157.755,NaN
87304.9,23.8423,20.0001,0.00543462,635.58,0.00135866,158.895,NaN
87871.7,23.8996,20,0.00537828,638.645,0.00134457,159.661,NaN
88472.6,23.8787,19.9998,0.0053192,641.859,0.0013298,160.465,NaN
89081.7,23.9042,19.9997,0.00525949,645.081,0.00131487,161.27,NaN
89766.6,23.9023,19.9997,0.00519368,648.66,0.00129842,162.165,NaN
90532.6,23.9026,19.9995,0.00512123,652.611,0.00128031,163.153,NaN
91354.6,23.9042,19.9999,0.00504471,656.789,0.00126118,164.197,NaN
91976.3,23.9031,19.9997,0.00498803,659.908,0.00124701,164.977,NaN
92540.5,23.885,20.0001,0.00493696,662.707,0.00123424,165.677,NaN
93177.1,23.9202,19.9994,0.00488094,665.832,0.00122023,166.458,NaN
93644,23.8933,19.9997,0.00484005,668.102,0.00121001,167.025,NaN
94257.9,23.8848,19.9998,0.00478667,671.057,0.00119667,167.764,NaN
94967.7,23.9104,20,0.00472591,674.433,0.00118148,168.608,NaN
95605.9,23.8998,20,0.0046715,677.431,0.00116788,169.358,NaN
96192.2,23.913,19.9999,0.00462191,680.156,0.00115548,170.039,NaN
96729,23.9245,19.9995,0.00457735,682.625,0.00114434,170.656,NaN
97382.2,23.9367,20.0001,0.00452362,685.597,0.0011309,171.399,NaN
98025,23.9103,20.0001,0.00447052,688.488,0.00111763,172.122,NaN
98687.9,23.9057,19.9999,0.00441698,691.434,0.00110425,172.858,NaN
99263.1,23.9069,20.0001,0.00437082,693.961,0.0010927,173.49,NaN
99957,23.9179,19.9995,0.00431622,696.975,0.00107906,174.244,NaN
100705,23.914,19.9997,0.00425866,700.182,0.00106466,175.046,NaN
101297,23.9179,19.9997,0.00421377,702.691,0.00105344,175.673,NaN
101968,23.8997,20,0.00416363,705.502,0.00104091,176.375,NaN
102554,23.9608,20.0001,0.00412049,707.926,0.00103012,176.982,NaN
103169,23.918,19.9995,0.00407531,710.447,0.00101883,177.612,NaN
103762,23.8889,20,0.00403225,712.853,0.00100806,178.213,NaN
104287,23.9448,19.9998,0.00399487,714.957,0.000998718,178.739,NaN
104867,23.9106,19.9993,0.00395363,717.263,0.000988408,179.316,NaN
105484,23.9455,19.9999,0.00391065,719.69,0.000977664,179.923,NaN
106079,23.9189,19.9998,0.00386901,722.004,0.000967253,180.501,NaN
106725,23.9361,20,0.00382565,724.488,0.000956412,181.122,NaN
107399,23.9102,19.9997,0.00378153,727.053,0.000945382,181.763,NaN
107966,23.9225,19.9997,0.00374533,729.188,0.000936332,182.297,NaN
108686,23.9316,19.9997,0.00370098,731.867,0.000925244,182.967,NaN
109375,23.9587,19.9999,0.00365993,734.402,0.000914982,183.6,NaN
109924,23.9201,19.9996,0.00362842,736.405,0.000907104,184.101,NaN
110583,23.8979,20,0.00359127,738.781,0.000897817,184.695,NaN
111221,23.948,20.0001,0.00355559,741.064,0.000888898,185.266,NaN
111884,23.9232,20.0001,0.00351991,743.409,0.000879979,185.852,NaN
112464,23.9355,19.9998,0.00348974,745.44,0.000872434,186.36,NaN
113045,23.9497,19.9998,0.00346118,747.459,0.000865296,186.865,NaN
113653,23.9084,19.9998,0.00343142,749.556,0.000857855,187.389,NaN
114234,23.9364,19.9997,0.00340454,751.541,0.000851135,187.885,NaN
114868,23.9436,20,0.00337507,753.692,0.000843768,188.423,NaN
115654,23.9275,19.9997,0.00333971,756.329,0.000834928,189.082,NaN
116385,23.9254,19.9998,0.00330811,758.758,0.000827027,189.689,NaN
116968,23.9166,19.9997,0.00328324,760.682,0.00082081,190.17,NaN
117732,23.9425,19.9998,0.00325235,763.176,0.000813087,190.794,NaN
118539,23.9575,20,0.00322124,765.79,0.00080531,191.447,NaN
119141,23.9426,19.9994,0.00319915,767.723,0.000799788,191.931,NaN
119773,23.9582,19.9998,0.00317705,769.735,0.000794263,192.434,NaN
120312,23.9561,19.9999,0.00315914,771.443,0.000789785,192.861,NaN
121035,23.9646,20.0008,0.00313539,773.717,0.000783849,193.429,NaN
121752,23.9655,19.9998,0.00311403,775.958,0.000778506,193.989,NaN
122461,23.9635,20,0.00309329,778.161,0.000773322,194.54,NaN
123147,23.9258,19.9998,0.00307509,780.276,0.000768772,195.069,NaN
123776,23.9889,20.0001,0.00305841,782.205,0.000764601,195.551,NaN
124369,23.9664,19.9998,0.00304304,784.011,0.00076076,196.003,NaN
124950,23.9706,20.0002,0.0030292,785.778,0.000757301,196.444,NaN
125573,23.9858,20.0001,0.0030146,787.66,0.00075365,196.915,NaN
126158,23.9718,19.999,0.00300156,789.418,0.00075039,197.354,NaN
126746,24.0187,19.9999,0.00298876,791.18,0.000747189,197.795,NaN
127352,23.9619,20.0001,0.0029762,792.988,0.000744049,198.247,NaN
127958,23.9756,20,0.00296268,794.787,0.000740671,198.697,NaN
128580,23.9848,19.9994,0.00294938,796.627,0.000737344,199.157,NaN
129200,23.9748,19.9994,0.00293677,798.451,0.000734192,199.613,NaN
129905,23.9935,19.9998,0.00292194,800.515,0.000730485,200.129,NaN
130655,24.0122,19.9999,0.00290646,802.701,0.000726615,200.675,NaN
131241,23.978,20,0.00289476,804.4,0.000723689,201.1,NaN
131792,23.9677,19.9998,0.00288355,805.994,0.000720888,201.498,NaN
132443,23.9863,20,0.00287027,807.867,0.000717568,201.967,NaN
133262,23.9864,19.9999,0.00285356,810.209,0.000713389,202.552,NaN
133887,24.0153,20,0.00284092,811.988,0.000710231,202.997,NaN
134536,23.9983,19.9998,0.00282799,813.83,0.000706997,203.457,NaN
135232,24.013,20.0001,0.00281433,815.793,0.000703583,203.948,NaN
135882,24.0086,20.0003,0.00280202,817.619,0.000700506,204.405,NaN
136425,24.0056,19.9999,0.0027924,819.137,0.000698099,204.784,NaN
137000,24.0011,19.9993,0.00278241,820.74,0.000695601,205.185,NaN
137560,23.9903,19.9989,0.00277289,822.294,0.000693221,205.573,NaN
138197,24.0176,19.9999,0.00276105,824.056,0.000690262,206.014,NaN
138841,24.0149,19.9997,0.0027491,825.831,0.000687275,206.458,NaN
139550,24.0248,20.0001,0.00273599,827.776,0.000683998,206.944,NaN
140467,24.0158,19.9996,0.00271904,830.278,0.00067976,207.569,NaN
141152,23.9977,19.9993,0.0027071,832.135,0.000676776,208.034,NaN
141987,24.0312,19.9998,0.00269206,834.389,0.000673014,208.597,NaN
142942,23.9737,19.9998,0.00267505,836.951,0.000668764,209.238,NaN
143763,23.9889,20,0.00265997,839.143,0.000664992,209.786,NaN
144588,23.9722,19.9998,0.00264515,841.331,0.000661288,210.333,NaN
145359,23.9848,20.0001,0.0026312,843.366,0.000657799,210.842,NaN
146067,23.9768,19.9992,0.00261861,845.223,0.000654653,211.306,NaN
146899,24.0103,19.9999,0.00260445,847.397,0.000651113,211.849,NaN
147427,23.9886,19.9996,0.00259501,848.769,0.000648753,212.192,NaN
148184,24.0028,20.0001,0.00258146,850.727,0.000645365,212.682,NaN
149036,24.0153,19.9999,0.0025667,852.921,0.000641676,213.23,NaN
149659,24.0078,20.0001,0.00255614,854.516,0.000639035,213.629,NaN
150297,23.9755,20.0001,0.00254568,856.143,0.000636421,214.036,NaN
150953,24.0104,19.9996,0.00253531,857.811,0.000633828,214.453,NaN
151750,24.0069,19.9999,0.00252101,859.827,0.000630252,214.957,NaN
152521,24.0095,20.0001,0.00250856,861.764,0.000627139,215.441,NaN
153362,23.9823,19.9998,0.00249511,863.869,0.000623778,215.967,NaN
154333,24.0157,19.9999,0.00248076,866.283,0.00062019,216.571,NaN
155200,24.0271,19.9999,0.00246797,868.43,0.000616992,217.107,NaN
155956,24.0007,20,0.00245681,870.292,0.000614203,217.573,NaN
156636,24.0148,19.9996,0.00244715,871.958,0.000611787,217.99,NaN
157281,24.0062,19.9996,0.00243722,873.535,0.000609306,218.384,NaN
158154,23.9812,20.0001,0.00242487,875.658,0.000606218,218.914,NaN
158905,24.0261,19.9998,0.0024136,877.473,0.0006034,219.368,NaN
159862,23.9921,19.9998,0.00240088,879.777,0.000600221,219.944,NaN
160617,24.0258,19.9998,0.00238846,881.585,0.000597115,220.396,NaN
161401,24.0485,19.9999,0.0023773,883.454,0.000594324,220.864,NaN
162124,23.9924,19.9999,0.00236617,885.169,0.000591542,221.292,NaN
162687,24.0009,19.9999,0.00235777,886.498,0.000589443,221.625,NaN
163464,24.0186,19.9999,0.0023469,888.325,0.000586725,222.081,NaN
164339,24.0279,20.0003,0.00233336,890.373,0.00058334,222.593,NaN
164939,24.0309,20,0.00232419,891.77,0.000581047,222.942,NaN
165762,24.0192,19.9999,0.00231235,893.678,0.000578087,223.419,NaN
166551,24.0188,19.9993,0.00230008,895.498,0.00057502,223.875,NaN
167190,24.0492,19.9997,0.00229062,896.965,0.000572655,224.241,NaN
167776,23.995,20,0.00228076,898.305,0.000570189,224.576,NaN
168606,24.0065,19.9999,0.00226828,900.192,0.00056707,225.048,NaN
169170,23.9842,19.9999,0.00225988,901.468,0.000564969,225.367,NaN
169938,24.0346,19.9995,0.0022468,903.2,0.000561699,225.8,NaN
170661,24.0074,19.9997,0.00223456,904.819,0.00055864,226.205,NaN
171370,24.0333,19.9996,0.00222312,906.399,0.00055578,226.6,NaN
171993,23.9906,19.9996,0.00221265,907.783,0.000553162,226.946,NaN
172588,24.0091,19.9995,0.0022033,909.096,0.000550824,227.274,NaN
173248,24.0121,19.9998,0.00219271,910.546,0.000548178,227.636,NaN
174093,24.0136,19.9997,0.00217878,912.393,0.000544694,228.098,NaN
174907,24.0251,20,0.00216581,914.162,0.000541453,228.54,NaN
175709,24.0227,19.9998,0.00215344,915.894,0.000538361,228.974,NaN
176472,24.0399,20.0001,0.00214253,917.533,0.000535632,229.383,NaN
177197,24.0435,19.9999,0.00213164,919.083,0.000532909,229.771,NaN
178122,24.0728,19.9992,0.0021186,921.048,0.000529649,230.262,NaN
178912,23.9755,19.9996,0.00210701,922.716,0.000526753,230.679,NaN
179758,24.0354,19.9998,0.00209445,924.494,0.000523612,231.124,NaN
180417,24.0452,19.9998,0.00208443,925.871,0.000521107,231.468,NaN
181278,24.0326,20,0.0020711,927.659,0.000517775,231.915,NaN
181962,24.028,19.9998,0.00206042,929.073,0.000515105,232.268,NaN
182720,24.0454,19.9999,0.00204859,930.63,0.000512146,232.657,NaN
183513,24.0459,20.0002,0.00203617,932.249,0.000509042,233.062,NaN
184335,24.0447,20,0.00202247,933.919,0.000505618,233.48,NaN
184978,24.0574,19.9998,0.00201252,935.215,0.000503129,233.804,NaN
185745,24.0669,19.9998,0.00200139,936.755,0.000500347,234.189,NaN
186326,24.0031,19.9994,0.00199221,937.913,0.000498052,234.478,NaN
187022,24.0573,20,0.00198127,939.296,0.000495318,234.824,NaN
187644,24.0582,19.9995,0.00197113,940.526,0.000492781,235.131,NaN
188270,24.0482,19.9997,0.00196033,941.757,0.000490082,235.439,NaN
189021,24.0306,20.0003,0.00194801,943.224,0.000487002,235.806,NaN
189700,24.0664,19.9996,0.00193666,944.544,0.000484165,236.136,NaN
190517,24.0712,19.9997,0.00192267,946.12,0.000480668,236.53,NaN
191131,24.0692,19.9997,0.00191218,947.298,0.000478046,236.824,NaN
191835,24.0727,19.9994,0.00190073,948.639,0.000475183,237.16,NaN
192634,24.1055,19.9997,0.00188735,950.153,0.000471838,237.538,NaN
193461,24.0814,19.9996,0.0018731,951.707,0.000468276,237.927,NaN
194307,24.0876,19.9999,0.00185994,953.287,0.000464984,238.322,NaN
195085,24.0913,20,0.00184817,954.729,0.000462042,238.682,NaN
195843,24.0804,19.9996,0.00183832,956.127,0.000459579,239.032,NaN
196522,24.0875,19.9996,0.00182961,957.371,0.000457402,239.343,NaN
197335,24.1132,20.0003,0.0018185,958.853,0.000454626,239.713,NaN
197970,24.0831,19.9998,0.0018101,960.007,0.000452524,240.002,NaN
198587,24.1142,19.9995,0.00180179,961.12,0.000450447,240.28,NaN
199230,24.1016,20,0.00179257,962.275,0.000448143,240.569,NaN
199932,24.0597,19.9999,0.00178218,963.53,0.000445545,240.883,NaN
200582,24.1013,20,0.0017718,964.685,0.00044295,241.171,NaN
201299,24.1143,19.9996,0.00176037,965.951,0.000440093,241.488,NaN
202086,24.1034,19.9999,0.00174765,967.332,0.000436912,241.833,NaN
202675,24.1285,19.9998,0.00173833,968.358,0.000434582,242.09,NaN
203422,24.0874,19.9999,0.00172661,969.654,0.000431653,242.413,NaN
204111,24.1035,20.0004,0.00171537,970.839,0.000428842,242.71,NaN
204948,24.1226,19.9997,0.00170225,972.269,0.000425563,243.067,NaN
205624,24.1207,19.9994,0.00169227,973.416,0.000423068,243.354,NaN
206297,24.1199,19.9999,0.00168255,974.553,0.000420637,243.638,NaN
207108,24.144,19.9997,0.0016717,975.912,0.000417926,243.978,NaN
207863,24.1264,20,0.0016618,977.171,0.00041545,244.293,NaN
208495,24.1286,20,0.00165344,978.218,0.00041336,244.555,NaN
209095,24.1139,19.9997,0.00164589,979.209,0.000411473,244.802,NaN
209827,24.1394,19.9997,0.00163561,980.409,0.000408903,245.102,NaN
210685,24.0914,20,0.00162223,981.807,0.000405557,245.452,NaN
211428,24.1255,19.9999,0.00160989,983.008,0.000402472,245.752,NaN
212070,24.1013,19.9998,0.00159872,984.037,0.000399681,246.009,NaN
212731,24.0926,19.9999,0.00158636,985.09,0.000396589,246.272,NaN
213492,24.0983,19.9991,0.00157176,986.291,0.000392939,246.573,NaN
214179,24.0951,19.9997,0.00155905,987.368,0.000389761,246.842,NaN
214884,24.1166,19.9998,0.00154519,988.462,0.000386297,247.116,NaN
215541,24.1056,20.0003,0.00153247,989.473,0.000383117,247.368,NaN
216286,24.0999,19.9999,0.00151855,990.608,0.000379638,247.652,NaN
216967,24.0932,19.9999,0.0015062,991.639,0.000376549,247.91,NaN
217580,24.0904,19.9999,0.00149478,992.559,0.000373694,248.14,NaN
218357,24.1125,19.9997,0.00148059,993.715,0.000370146,248.429,NaN
219245,24.0908,20.0001,0.00146408,995.022,0.000366021,248.756,NaN
219799,24.1246,19.9997,0.00145382,995.83,0.000363455,248.958,NaN
220468,24.1308,20,0.00144133,996.799,0.000360332,249.2,NaN
221151,24.1093,19.9997,0.00142944,997.78,0.000357359,249.445,NaN
221854,24.1118,19.9998,0.00141859,998.78,0.000354649,249.695,NaN
222585,24.1064,19.9999,0.00140811,999.814,0.000352028,249.954,NaN
223408,24.149,19.9997,0.00139735,1000.97,0.000349338,250.242,NaN
224159,24.1186,19.9998,0.00138855,1002.01,0.000347137,250.503,NaN
224743,24.1226,20,0.00138215,1002.82,0.000345537,250.706,NaN
225320,24.1766,19.9994,0.00137565,1003.62,0.000343913,250.905,NaN
226087,24.1556,19.9996,0.00136725,1004.67,0.000341812,251.168,NaN
226736,24.1062,20,0.00135987,1005.56,0.000339968,251.389,NaN
227324,24.1199,19.9998,0.0013532,1006.35,0.000338301,251.588,NaN
227892,24.1447,20.0001,0.00134659,1007.12,0.000336648,251.78,NaN
228750,24.1265,19.9994,0.00133563,1008.27,0.000333907,252.068,NaN
229679,24.1216,19.9998,0.00132297,1009.51,0.000330743,252.376,NaN
230401,24.1439,19.9998,0.00131262,1010.46,0.000328155,252.614,NaN
231107,24.1439,19.9998,0.00130217,1011.38,0.000325541,252.845,NaN
231829,24.1374,19.9996,0.00129136,1012.32,0.000322839,253.079,NaN
232764,24.13,20.0001,0.00127812,1013.52,0.000319529,253.379,NaN
233400,24.1343,19.9998,0.00126896,1014.33,0.00031724,253.582,NaN
234151,24.1505,20,0.00125875,1015.28,0.000314687,253.819,NaN
235139,24.113,19.9996,0.001246,1016.51,0.0003115,254.128,NaN
235841,24.1389,20.0003,0.00123661,1017.39,0.000309152,254.346,NaN
236496,24.1275,19.9996,0.00122775,1018.19,0.000306938,254.548,NaN
237224,24.1612,19.9998,0.00121801,1019.08,0.000304503,254.771,NaN
237996,24.181,20.0001,0.00120848,1020.02,0.00030212,255.005,NaN
238700,24.1342,19.9997,0.00119976,1020.87,0.00029994,255.217,NaN
239296,24.1471,19.9998,0.00119269,1021.58,0.000298172,255.395,NaN
240004,24.153,19.9999,0.00118409,1022.42,0.000296023,255.605,NaN
240698,24.1497,19.9998,0.00117575,1023.24,0.000293938,255.81,NaN
241435,24.1524,19.9997,0.00116694,1024.1,0.000291734,256.026,NaN
242141,24.1539,19.9998,0.00115895,1024.92,0.000289737,256.231,NaN
242912,24.174,19.9991,0.00115025,1025.81,0.000287564,256.454,NaN
243661,24.1423,19.9996,0.00114203,1026.67,0.000285506,256.668,NaN
244564,24.1315,19.9998,0.00113165,1027.7,0.000282914,256.925,NaN
245255,24.1284,19.9999,0.00112365,1028.48,0.000280912,257.12,NaN
245889,24.1384,19.9999,0.00111647,1029.19,0.000279118,257.297,NaN
246615,24.1414,19.9991,0.00110829,1030,0.000277072,257.499,NaN
247512,24.1528,19.9999,0.00109815,1030.99,0.000274539,257.746,NaN
248260,24.1695,19.9996,0.00108947,1031.8,0.000272366,257.951,NaN
249087,24.1258,19.9999,0.00108001,1032.7,0.000270003,258.175,NaN
249837,24.1328,19.9996,0.00107123,1033.51,0.000267807,258.377,NaN
250624,24.157,19.9998,0.00106234,1034.35,0.000265585,258.587,NaN
251347,24.1834,19.9998,0.00105402,1035.11,0.000263505,258.778,NaN
252138,24.1452,19.9999,0.00104488,1035.94,0.00026122,258.986,NaN
253016,24.1983,19.9997,0.00103462,1036.86,0.000258656,259.214,NaN
253647,24.1406,20.0002,0.00102667,1037.51,0.000256669,259.376,NaN
254333,24.1544,19.9996,0.00101819,1038.21,0.000254548,259.552,NaN
255100,24.1572,19.9998,0.00100793,1038.98,0.000251982,259.746,NaN
255778,24.1642,20,0.000999337,1039.67,0.000249834,259.916,NaN
256488,24.145,19.9995,0.00099014,1040.37,0.000247535,260.093,NaN
257159,24.1844,20.0002,0.000981096,1041.03,0.000245274,260.258,NaN
257950,24.1448,20.0002,0.00097129,1041.8,0.000242823,260.451,NaN
258731,24.1677,19.9998,0.000962145,1042.56,0.000240536,260.64,NaN
259136,24.156,19.9997,0.000957422,1042.95,0.000239356,260.737,NaN
259475,24.156,19.9995,NaN,NaN,NaN,NaN,NaN
259872,24.1696,20.0001,NaN,NaN,NaN,NaN,NaN
260554,24.1511,19.9995,NaN,NaN,NaN,NaN,NaN