File: TAInstCalorimetry/DATA/myexp2.csv
Time,Temperature [AmbientT(Therm3T)],Temperature [Temperature],Heat flow [Signal],Heat [Signal],Normalized heat flow [Signal],Normalized heat [Signal],Time markers
0.0,24.4036,20,NaN,NaN,NaN,NaN,Reaction start
35.6429,24.4754,19.9999,0.000428303,0.00202309,0.000107076,0.000505774,NaN
55.6429,24.4774,19.9998,0.00454661,0.043906,0.00113665,0.0109765,NaN
80.6429,24.4805,20.0002,0.0142775,0.273385,0.00356936,0.0683462,NaN
114.643,24.4857,20.0001,0.0283995,1.00488,0.00709988,0.251221,NaN
147.393,24.4349,20.0003,0.0390389,2.11816,0.00975971,0.529541,NaN
177.643,24.5084,20.0007,0.0461761,3.413,0.011544,0.853249,NaN
209.143,24.4672,20.0003,0.0514617,4.9558,0.0128654,1.23895,NaN
245.393,24.4967,20.0002,0.0555524,6.90091,0.0138881,1.72523,NaN
287.893,24.5106,20.0003,0.0584576,9.32952,0.0146144,2.33238,NaN
329.893,24.4456,20,0.060005,11.8208,0.0150012,2.95521,NaN
383.364,24.4695,20.0001,0.0608372,15.0559,0.0152093,3.76396,NaN
440.613,24.4863,20.0002,0.0609548,18.5449,0.0152387,4.63622,NaN
505.049,24.5221,19.9999,0.0604019,22.4591,0.0151005,5.61478,NaN
559.143,24.5283,20,0.0591469,25.6964,0.0147867,6.4241,NaN
618.143,24.5488,20.0005,0.056833,29.1223,0.0142083,7.28057,NaN
673.643,24.5547,20.0001,0.0539592,32.1992,0.0134898,8.0498,NaN
745.726,24.601,20.0001,0.0496699,35.9363,0.0124175,8.98408,NaN
831.815,24.6116,20,0.0443157,39.9815,0.0110789,9.99539,NaN
897.893,24.5989,20.0005,0.0403208,42.7773,0.0100802,10.6943,NaN
998.643,24.5536,20.0001,0.0346886,46.5507,0.00867216,11.6377,NaN
1075.39,24.5051,20,0.0308451,49.0629,0.00771127,12.2657,NaN
1154.39,24.5572,20,0.0273128,51.3574,0.00682819,12.8394,NaN
1219.6,24.577,20,0.0247044,53.0516,0.00617611,13.2629,NaN
1300.56,24.5564,19.9995,0.0218279,54.9328,0.00545697,13.7332,NaN
1376.61,24.5263,19.9995,0.0194597,56.5008,0.00486492,14.1252,NaN
1464.64,24.5322,20,0.0170778,58.1066,0.00426945,14.5266,NaN
1552.77,24.5326,19.9995,0.0150321,59.5191,0.00375803,14.8798,NaN
1672.6,24.5187,20,0.0127111,61.1764,0.00317779,15.2941,NaN
1788.08,24.5206,20,0.0108913,62.5358,0.00272282,15.634,NaN
1898.88,24.5946,19.9999,0.00945782,63.6606,0.00236445,15.9151,NaN
2023.79,24.5262,19.9996,0.00813853,64.7566,0.00203463,16.1891,NaN
2152.17,24.5438,19.9996,0.00704353,65.7287,0.00176088,16.4322,NaN
2321.28,24.5668,19.9998,0.00591541,66.8199,0.00147885,16.705,NaN
2470.69,24.5489,19.9999,0.00514439,67.644,0.0012861,16.911,NaN
2606.33,24.5586,19.9997,0.00458404,68.3025,0.00114601,17.0756,NaN
2788.08,24.5638,19.9997,0.00399031,69.0793,0.000997578,17.2698,NaN
2964.75,24.5345,19.9998,0.00354241,69.743,0.000885603,17.4358,NaN
3125.98,24.5535,19.9995,0.00321669,70.2871,0.000804172,17.5718,NaN
3304.9,24.5447,19.9995,0.00292533,70.8356,0.000731333,17.7089,NaN
3493.39,24.5924,19.9996,0.00267927,71.3628,0.000669818,17.8407,NaN
3727.58,24.5599,19.9999,0.00243803,71.961,0.000609508,17.9903,NaN
3933.72,24.5725,19.9995,0.00226866,72.4455,0.000567165,18.1114,NaN
4168.14,24.5686,19.9992,0.00211238,72.9584,0.000528094,18.2396,NaN
4398.18,24.5739,19.9994,0.0019864,73.4294,0.0004966,18.3574,NaN
4558.74,24.5724,19.9998,0.0019114,73.7422,0.000477851,18.4355,NaN
4794.64,24.5574,20.0001,0.00181671,74.1816,0.000454177,18.5454,NaN
5035.73,24.5651,20.0001,0.00173619,74.6096,0.000434048,18.6524,NaN
5297.95,24.5772,19.9996,0.00166252,75.0548,0.000415631,18.7637,NaN
5564.45,24.5676,20.0001,0.00160024,75.4894,0.000400061,18.8723,NaN
5795.72,24.572,19.9998,0.00155526,75.8541,0.000388815,18.9635,NaN
6001.69,24.5928,19.9998,0.00152074,76.1708,0.000380186,19.0427,NaN
6292.08,24.5895,19.9999,0.00148019,76.6063,0.000370046,19.1516,NaN
6513.37,24.5953,20.0001,0.00145527,76.931,0.000363817,19.2328,NaN
6794.27,24.6064,19.9998,0.00142957,77.336,0.000357392,19.334,NaN
7175.42,24.5933,20,0.00140527,77.876,0.000351318,19.469,NaN
7401.14,24.5903,20.0002,0.00139534,78.192,0.000348835,19.548,NaN
7649.25,24.6336,20,0.00138774,78.5372,0.000346934,19.6343,NaN
7828.06,24.6018,19.9997,0.00138395,78.785,0.000345987,19.6963,NaN
8059.81,24.575,19.9996,0.0013798,79.1053,0.000344949,19.7763,NaN
8296.28,24.62,20,0.00137459,79.4309,0.000343646,19.8577,NaN
8579.75,24.5636,19.9998,0.00137274,79.82,0.000343184,19.955,NaN
8778.85,24.567,19.9998,0.00138421,80.0942,0.000346053,20.0236,NaN
9040.08,24.6092,20,0.00142084,80.4601,0.00035521,20.115,NaN
9242.21,24.6011,19.9999,0.00146249,80.7513,0.000365623,20.1878,NaN
9469.39,24.6435,19.9996,0.00151654,81.0896,0.000379136,20.2724,NaN
9641.02,24.5924,19.9998,0.00155928,81.3536,0.00038982,20.3384,NaN
9891.63,24.6278,19.9994,0.00162113,81.7521,0.000405283,20.438,NaN
10127.8,24.6401,19.9994,0.00167706,82.1417,0.000419264,20.5354,NaN
10353.7,24.6124,20.0003,0.00172769,82.5263,0.000431923,20.6316,NaN
10564.4,24.64,20.0002,0.00177361,82.8951,0.000443403,20.7238,NaN
10786.9,24.6068,19.9999,0.00182054,83.2949,0.000455136,20.8237,NaN
11010.5,24.6341,19.9999,0.00186647,83.7073,0.000466618,20.9268,NaN
11288.8,24.5817,20.0001,0.00192284,84.2346,0.00048071,21.0586,NaN
11460.4,24.6131,20.0001,0.00195785,84.5675,0.000489463,21.1419,NaN
11658.4,24.6148,20,0.00199818,84.959,0.000499546,21.2398,NaN
11871.2,24.6286,19.9996,0.00204189,85.389,0.000510472,21.3472,NaN
12153.4,24.6411,19.9993,0.00210066,85.9735,0.000525165,21.4934,NaN
12347.6,24.6235,19.9998,0.00214166,86.3854,0.000535416,21.5963,NaN
12608,24.5927,19.9999,0.0021976,86.9502,0.0005494,21.7376,NaN
12816.5,24.6268,20.0001,0.00224335,87.4133,0.000560838,21.8533,NaN
13009.9,24.6165,19.9998,0.00228639,87.8513,0.000571598,21.9628,NaN
13230,24.6025,19.9998,0.00233601,88.3599,0.000584002,22.09,NaN
13448,24.6046,19.9999,0.00238591,88.8746,0.000596477,22.2187,NaN
13729.5,24.6335,20,0.00245146,89.5554,0.000612866,22.3889,NaN
13945.2,24.6164,19.9998,0.00250264,90.0899,0.000625661,22.5225,NaN
14194.5,24.6245,20.0001,0.00256251,90.721,0.000640626,22.6803,NaN
14396.5,24.5983,19.9997,0.00261206,91.2439,0.000653015,22.811,NaN
14639.3,24.6488,19.9999,0.00267245,91.8852,0.000668114,22.9713,NaN
14832.4,24.6268,20,0.00272092,92.4061,0.000680231,23.1015,NaN
15065.6,24.5969,19.9996,0.00278058,93.0474,0.000695145,23.2618,NaN
15255.7,24.6512,19.9999,0.00282957,93.5805,0.000707393,23.3951,NaN
15434.9,24.6614,20.0002,0.00287689,94.0919,0.000719223,23.523,NaN
15649.3,24.6257,19.9999,0.00293361,94.7149,0.000733403,23.6787,NaN
15917.7,24.6356,19.9998,0.00300577,95.5119,0.000751442,23.878,NaN
16101,24.6392,19.9995,0.00305567,96.0673,0.000763918,24.0168,NaN
16274.6,24.6573,19.9995,0.00310351,96.6019,0.000775877,24.1505,NaN
16515.6,24.642,19.9997,0.00317046,97.3578,0.000792615,24.3394,NaN
16800.7,24.6444,19.9998,0.00325065,98.2732,0.000812661,24.5683,NaN
17062.1,24.6374,20,0.00332553,99.1326,0.000831382,24.7832,NaN
17265.1,24.5887,19.9998,0.00338407,99.8137,0.000846018,24.9534,NaN
17574.9,24.6596,19.9994,0.00347421,100.876,0.000868552,25.219,NaN
17803.2,24.6259,19.9994,0.00354173,101.677,0.000885434,25.4193,NaN
17975.6,24.6394,19.9997,0.00359297,102.292,0.000898242,25.5731,NaN
18188.5,24.6254,19.9998,0.00365678,103.064,0.000914195,25.766,NaN
18441,24.6441,19.9999,0.00373306,103.997,0.000933266,25.9992,NaN
18658.9,24.619,19.9998,0.00379971,104.818,0.000949927,26.2044,NaN
18932.2,24.6338,20.0002,0.00388411,105.867,0.000971027,26.4668,NaN
19222,24.6369,19.9999,0.00397462,107.006,0.000993656,26.7516,NaN
19459.6,24.6443,19.9997,0.00404929,107.96,0.00101232,26.9899,NaN
19687.8,24.6369,20.0003,0.0041215,108.892,0.00103038,27.2229,NaN
19884.5,24.6122,20.0006,0.00418425,109.709,0.00104606,27.4272,NaN
20136.9,24.6301,20.0003,0.00426545,110.775,0.00106636,27.6937,NaN
20334.9,24.6632,20.0001,0.00432972,111.626,0.00108243,27.9064,NaN
20593.3,24.7024,19.9999,0.00441381,112.756,0.00110345,28.189,NaN
20774.4,24.7066,19.9999,0.00447304,113.56,0.00111826,28.39,NaN
20955.4,24.6661,20.0003,0.00453219,114.375,0.00113305,28.5938,NaN
21258,24.6777,20.0001,0.00463245,115.761,0.00115811,28.9404,NaN
21581.1,24.7162,19.9999,0.00473995,117.276,0.00118499,29.3189,NaN
21814.1,24.6776,20,0.00481815,118.389,0.00120454,29.5974,NaN
22008.8,24.709,19.9993,0.00488353,119.334,0.00122088,29.8334,NaN
22204.4,24.6803,19.9992,0.00494952,120.295,0.00123738,30.0739,NaN
22464.2,24.6264,19.9997,0.00503738,121.593,0.00125935,30.3982,NaN
22692,24.6675,19.9995,0.00511458,122.749,0.00127864,30.6872,NaN
22894.1,24.7207,19.9997,0.00518376,123.79,0.00129594,30.9474,NaN
23133.3,24.6824,19.9998,0.00526527,125.039,0.00131632,31.2598,NaN
23463.8,24.7003,19.9999,0.00537772,126.798,0.00134443,31.6995,NaN
23759.8,24.6886,20,0.0054791,128.405,0.00136978,32.1012,NaN
23964.1,24.7127,19.9999,0.00554842,129.531,0.0013871,32.3828,NaN
24180.9,24.7335,20.0002,0.00562211,130.742,0.00140553,32.6856,NaN
24477.7,24.6961,19.9999,0.00572219,132.426,0.00143055,33.1064,NaN
24752.1,24.6173,19.9999,0.00581497,134.009,0.00145374,33.5023,NaN
24984.8,24.6944,19.9997,0.00589311,135.371,0.00147328,33.8426,NaN
25268.6,24.6989,19.9997,0.00598814,137.057,0.00149704,34.2642,NaN
25502.9,24.6882,19.9997,0.00606588,138.469,0.00151647,34.6173,NaN
25698.8,24.6891,19.9992,0.00613093,139.664,0.00153273,34.916,NaN
25957.7,24.6566,19.9999,0.00621594,141.262,0.00155398,35.3155,NaN
26220.2,24.741,19.9991,0.00630184,142.905,0.00157546,35.7263,NaN
26404.6,24.7228,20,0.00636174,144.073,0.00159043,36.0181,NaN
26652.9,24.7206,19.9998,0.00644154,145.662,0.00161038,36.4155,NaN
26933.6,24.7136,20.0001,0.00653163,147.483,0.00163291,36.8708,NaN
27152.9,24.7527,19.9998,0.00660123,148.923,0.00165031,37.2308,NaN
27456.1,24.7282,20,0.00669621,150.939,0.00167405,37.7348,NaN
27650,24.7369,20.0002,0.00675626,152.243,0.00168907,38.0608,NaN
27868.5,24.7039,19.9997,0.00682311,153.727,0.00170578,38.4317,NaN
28094.2,24.7387,20.0001,0.00689179,155.274,0.00172295,38.8185,NaN
28311.6,24.7493,19.9998,0.0069568,156.78,0.0017392,39.195,NaN
28584.8,24.7608,19.9998,0.00703754,158.691,0.00175938,39.6728,NaN
28826.7,24.7009,19.9991,0.00710793,160.402,0.00177698,40.1006,NaN
29052.8,24.7006,19.9997,0.00717255,162.016,0.00179314,40.5041,NaN
29340,24.734,19.9996,0.00725367,164.088,0.00181342,41.0221,NaN
29637.8,24.7352,19.9999,0.0073354,166.261,0.00183385,41.5651,NaN
29836.1,24.7271,20.001,0.00738891,167.721,0.00184723,41.9302,NaN
30047.3,24.6781,20.0002,0.00744521,169.287,0.0018613,42.3218,NaN
30290.9,24.7137,19.9998,0.00750936,171.109,0.00187734,42.7771,NaN
30526.2,24.6375,19.9996,0.00756934,172.883,0.00189234,43.2207,NaN
30771,24.6609,19.9998,0.00763029,174.743,0.00190757,43.6858,NaN
31036.7,24.6877,19.9992,0.00769474,176.779,0.00192369,44.1948,NaN
31223.4,24.6369,19.9999,0.00773907,178.22,0.00193477,44.555,NaN
31465.3,24.6179,19.9998,0.00779482,180.099,0.0019487,45.0246,NaN
31745.1,24.6193,19.9996,0.00785733,182.289,0.00196433,45.5722,NaN
32060.9,24.6062,19.9992,0.00792518,184.781,0.0019813,46.1952,NaN
32274,24.5844,19.9997,0.00797,186.475,0.0019925,46.6187,NaN
32512.4,24.5884,20,0.00801837,188.38,0.00200459,47.095,NaN
32777.5,24.5963,20.0001,0.00807088,190.513,0.00201772,47.6283,NaN
33074.8,24.536,19.9996,0.00812718,192.921,0.00203179,48.2302,NaN
33353.5,24.5598,19.9999,0.00817818,195.193,0.00204454,48.7983,NaN
33618,24.5364,19.9996,0.0082247,197.362,0.00205617,49.3406,NaN
33855.7,24.5634,20,0.00826439,199.322,0.0020661,49.8305,NaN
34087.6,24.4908,20.0002,0.00830203,201.243,0.00207551,50.3108,NaN
34263.9,24.5004,19.9998,0.00832969,202.709,0.00208242,50.6772,NaN
34454.6,24.5276,19.9999,0.00835859,204.3,0.00208965,51.075,NaN
34670,24.5503,20,0.00839025,206.104,0.00209756,51.526,NaN
34868,24.52,19.9999,0.00841838,207.768,0.00210459,51.9421,NaN
35079.6,24.469,19.9997,0.0084479,209.553,0.00211198,52.3883,NaN
35303.7,24.5152,19.9994,0.0084777,211.449,0.00211943,52.8622,NaN
35525.3,24.5273,20,0.00850537,213.331,0.00212634,53.3327,NaN
35759.9,24.5205,19.9991,0.00853391,215.33,0.00213348,53.8325,NaN
36004.2,24.5432,19.9998,0.00856235,217.418,0.00214059,54.3544,NaN
36304.9,24.5185,19.9997,0.00859518,219.998,0.0021488,54.9994,NaN
36544.5,24.4866,20,0.0086199,222.06,0.00215498,55.515,NaN
36802.4,24.5002,19.9994,0.00864506,224.286,0.00216127,56.0715,NaN
37004.1,24.5036,19.9992,0.0086637,226.032,0.00216592,56.508,NaN
37227.3,24.4917,19.9998,0.00868301,227.968,0.00217075,56.992,NaN
37468.2,24.4901,19.9995,0.00870225,230.062,0.00217556,57.5155,NaN
37707.5,24.4808,19.9999,0.00872085,232.147,0.00218021,58.0367,NaN
37946.8,24.474,19.9998,0.00873772,234.235,0.00218443,58.5588,NaN
38196,24.5044,19.9998,0.00875421,236.415,0.00218855,59.1037,NaN
38500.4,24.4664,20,0.00877241,239.082,0.0021931,59.7706,NaN
38730.6,24.4485,19.9996,0.00878437,241.104,0.00219609,60.2759,NaN
38980.3,24.462,19.9992,0.00879649,243.298,0.00219912,60.8246,NaN
39249.8,24.4873,20,0.00880841,245.671,0.0022021,61.4176,NaN
39606,24.4315,20.0005,0.00882066,248.811,0.00220516,62.2027,NaN
39914.5,24.4579,19.9996,0.00882953,251.534,0.00220738,62.8834,NaN
40194.6,24.4349,19.9993,0.00883634,254.008,0.00220908,63.5019,NaN
40381.6,24.416,20.0005,0.00883938,255.66,0.00220984,63.9151,NaN
40599.2,24.447,19.9998,0.00884289,257.584,0.00221072,64.396,NaN
40876.6,24.4342,20.0005,0.00884567,260.037,0.00221142,65.0093,NaN
41166.3,24.443,20.0004,0.00884702,262.6,0.00221175,65.65,NaN
41454.3,24.4284,20.0002,0.0088466,265.148,0.00221165,66.2871,NaN
41691.6,24.4091,19.9998,0.0088455,267.247,0.00221138,66.8119,NaN
41917.3,24.4496,19.9997,0.00884365,269.244,0.00221091,67.311,NaN
42143.8,24.4439,19.9997,0.00884114,271.246,0.00221028,67.8115,NaN
42328.4,24.4099,19.9996,0.00883775,272.878,0.00220944,68.2196,NaN
42619.8,24.3936,19.9998,0.00883204,275.452,0.00220801,68.8631,NaN
42875.6,24.3886,19.9997,0.00882623,277.712,0.00220656,69.4279,NaN
43114.1,24.3691,19.9994,0.00882006,279.815,0.00220501,69.9539,NaN
43404.4,24.3997,19.9997,0.00881148,282.375,0.00220287,70.5938,NaN
43624.6,24.3823,19.9993,0.00880399,284.315,0.002201,71.0786,NaN
43875.6,24.3949,20,0.00879521,286.523,0.0021988,71.6307,NaN
44102.9,24.378,19.9997,0.0087862,288.521,0.00219655,72.1303,NaN
44442.4,24.3773,20,0.00877139,291.501,0.00219285,72.8752,NaN
44724,24.3672,19.9993,0.00875827,293.97,0.00218957,73.4924,NaN
44985.9,24.3723,19.9998,0.00874604,296.262,0.00218651,74.0655,NaN
45200.3,24.3723,19.9994,0.0087353,298.136,0.00218383,74.534,NaN
45453.9,24.3466,19.9999,0.00872178,300.35,0.00218044,75.0874,NaN
45662.8,24.3881,19.9997,0.0087105,302.17,0.00217763,75.5424,NaN
45892.6,24.3508,19.9997,0.00869792,304.171,0.00217448,76.0427,NaN
46160.7,24.3557,19.9993,0.00868264,306.5,0.00217066,76.625,NaN
46441.9,24.383,19.9995,0.00866632,308.939,0.00216658,77.2348,NaN
46679.3,24.3616,20,0.00865242,310.995,0.0021631,77.7487,NaN
46947,24.355,19.9997,0.00863679,313.31,0.0021592,78.3274,NaN
47164.8,24.3605,20.0002,0.00862434,315.189,0.00215608,78.7973,NaN
47402.2,24.3153,19.9997,0.0086106,317.235,0.00215265,79.3088,NaN
47606.7,24.3209,20,0.00859909,318.994,0.00214977,79.7486,NaN
47808.8,24.3466,20.0003,0.00858855,320.732,0.00214714,80.183,NaN
47999.8,24.3398,19.9996,0.00857911,322.371,0.00214478,80.5926,NaN
48218.8,24.319,19.9998,0.00856905,324.249,0.00214226,81.0622,NaN
48432.9,24.3271,19.9991,0.00856026,326.082,0.00214006,81.5206,NaN
48601.1,24.3306,19.9997,0.00855524,327.522,0.00213881,81.8804,NaN
48859.6,24.3171,19.9996,0.00855056,329.732,0.00213764,82.4331,NaN
49059.1,24.3008,20,0.00854961,331.439,0.0021374,82.8596,NaN
49290.7,24.3488,20.0001,0.00855298,333.419,0.00213824,83.3546,NaN
49481.2,24.312,19.9993,0.00855903,335.049,0.00213976,83.7622,NaN
49659.1,24.3662,20.0004,0.00856771,336.572,0.00214193,84.1429,NaN
49872.9,24.3048,19.9996,0.00858095,338.405,0.00214524,84.6012,NaN
50164.3,24.3339,19.9999,0.00860312,340.908,0.00215078,85.2271,NaN
50398.1,24.3235,20.0001,0.00862259,342.923,0.00215565,85.7307,NaN
50654.6,24.3108,19.9999,0.0086427,345.136,0.00216067,86.2841,NaN
50844.1,24.3246,19.9999,0.00865684,346.776,0.00216421,86.6939,NaN
51034.6,24.3089,19.9995,0.00866902,348.426,0.00216725,87.1066,NaN
51297.8,24.3149,20,0.00868334,350.709,0.00217083,87.6774,NaN
51555.6,24.2869,19.9997,0.00869421,352.949,0.00217355,88.2374,NaN
51780.1,24.292,19.9995,0.00870141,354.902,0.00217535,88.7256,NaN
51979.1,24.3202,19.9997,0.00870639,356.635,0.0021766,89.1587,NaN
52186.2,24.278,19.9998,0.00871017,358.438,0.00217754,89.6095,NaN
52369.4,24.2966,20,0.00871253,360.034,0.00217813,90.0085,NaN
52580.1,24.2959,20.0003,0.00871417,361.87,0.00217854,90.4674,NaN
52783.6,24.3302,19.9995,0.00871447,363.643,0.00217862,90.9109,NaN
52976.3,24.345,19.9997,0.00871376,365.322,0.00217844,91.3306,NaN
53191.9,24.252,19.9997,0.00871183,367.201,0.00217796,91.8002,NaN
53421,24.2608,19.9998,0.00870842,369.196,0.0021771,92.2991,NaN
53714.6,24.2839,19.9998,0.00870201,371.752,0.0021755,92.938,NaN
53997.7,24.2931,19.9997,0.00869339,374.215,0.00217335,93.5537,NaN
54320.5,24.2766,19.9991,0.00868048,377.019,0.00217012,94.2548,NaN
54519.9,24.2862,20.001,0.00867132,378.749,0.00216783,94.6873,NaN
54735.8,24.2884,19.9996,0.0086607,380.62,0.00216518,95.155,NaN
54960.7,24.2834,19.9996,0.00864837,382.567,0.00216209,95.6417,NaN
55215.1,24.2892,20.0002,0.00863255,384.764,0.00215814,96.1911,NaN
55432.7,24.296,19.9997,0.00861818,386.641,0.00215455,96.6604,NaN
55681,24.2745,20.0001,0.00860083,388.779,0.00215021,97.1948,NaN
55890.2,24.2387,19.9996,0.0085851,390.577,0.00214627,97.6443,NaN
56126.1,24.2767,20.0001,0.00856681,392.6,0.0021417,98.15,NaN
56371.2,24.2586,19.9995,0.00854658,394.697,0.00213665,98.6743,NaN
56603.9,24.2514,19.9994,0.00852632,396.684,0.00213158,99.171,NaN
56857.7,24.2974,19.9999,0.008503,398.845,0.00212575,99.7113,NaN
57148.7,24.2889,20,0.00847599,401.316,0.002119,100.329,NaN
57406.8,24.3109,19.9998,0.00845075,403.499,0.00211269,100.875,NaN
57663.3,24.2631,19.9997,0.0084244,405.664,0.0021061,101.416,NaN
57907.9,24.2562,19.9997,0.00839885,407.721,0.00209971,101.93,NaN
58141.2,24.2757,19.9999,0.00837339,409.678,0.00209335,102.419,NaN
58386.3,24.2437,19.9994,0.00834671,411.727,0.00208668,102.932,NaN
58588.3,24.2544,19.9996,0.00832427,413.411,0.00208107,103.353,NaN
58850.2,24.2658,20.0001,0.00829415,415.587,0.00207354,103.897,NaN
59041.8,24.2999,19.9997,0.0082719,417.174,0.00206797,104.293,NaN
59260.3,24.244,19.9999,0.00824609,418.978,0.00206152,104.745,NaN
59495,24.2393,19.9998,0.00821809,420.911,0.00205452,105.228,NaN
59740.2,24.2395,19.9996,0.0081887,422.922,0.00204718,105.73,NaN
59992.3,24.2267,19.9999,0.00815798,424.983,0.0020395,106.246,NaN
60314.2,24.2449,19.9999,0.00811804,427.603,0.00202951,106.901,NaN
60550.8,24.2479,19.9999,0.00808836,429.52,0.00202209,107.38,NaN
60779.4,24.2417,19.9997,0.00805969,431.365,0.00201492,107.841,NaN
60965,24.2536,20.0004,0.00803586,432.859,0.00200897,108.215,NaN
61162,24.2379,20.0002,0.00801058,434.439,0.00200265,108.61,NaN
61425.2,24.24,19.9998,0.00797671,436.544,0.00199418,109.136,NaN
61665.2,24.2267,19.9998,0.00794589,438.454,0.00198647,109.613,NaN
61905.4,24.2496,20.0001,0.00791459,440.359,0.00197865,110.09,NaN
62102.2,24.2134,20.0001,0.00788897,441.914,0.00197224,110.479,NaN
62347.4,24.2755,19.9996,0.00785688,443.844,0.00196422,110.961,NaN
62562.4,24.2816,20,0.00782865,445.531,0.00195716,111.383,NaN
62852.8,24.2527,19.9996,0.00779093,447.799,0.00194773,111.95,NaN
63105.3,24.2619,19.9998,0.0077576,449.762,0.0019394,112.441,NaN
63341.4,24.2257,19.9996,0.00772659,451.59,0.00193165,112.897,NaN
63613,24.2385,19.9998,0.00769129,453.683,0.00192282,113.421,NaN
63777.5,24.2207,20,0.00767015,454.947,0.00191754,113.737,NaN
64028.7,24.2327,19.9997,0.00763759,456.869,0.0019094,114.217,NaN
64228.5,24.2572,19.9999,0.00761146,458.392,0.00190286,114.598,NaN
64449.6,24.2546,19.9998,0.00758245,460.072,0.00189561,115.018,NaN
64681.2,24.2239,19.9997,0.00755235,461.825,0.00188809,115.456,NaN
64877.5,24.2207,20.0004,0.00752669,463.305,0.00188167,115.826,NaN
65154,24.2194,19.9997,0.00749123,465.381,0.00187281,116.345,NaN
65367.5,24.238,20.0003,0.0074638,466.978,0.00186595,116.745,NaN
65601.1,24.2192,19.9994,0.00743389,468.718,0.00185847,117.179,NaN
65843.6,24.2007,19.9997,0.00740306,470.517,0.00185077,117.629,NaN
66088.9,24.1901,19.9993,0.00737192,472.329,0.00184298,118.082,NaN
66386.5,24.2374,19.9999,0.00733463,474.518,0.00183366,118.629,NaN
66611.8,24.2625,20.0001,0.00730596,476.167,0.00182649,119.042,NaN
66865.8,24.2186,19.9992,0.00727408,478.018,0.00181852,119.505,NaN
67053.3,24.1849,20.0001,0.00725083,479.38,0.00181271,119.845,NaN
67272.5,24.2367,19.9995,0.00722369,480.967,0.00180592,120.242,NaN
67448.4,24.2354,19.9999,0.00720244,482.236,0.00180061,120.559,NaN
67691.1,24.1902,19.9997,0.00717244,483.98,0.00179311,120.995,NaN
67949.7,24.216,19.9998,0.00714055,485.83,0.00178514,121.458,NaN
68120.6,24.1794,19.9997,0.0071202,487.049,0.00178005,121.762,NaN
68330.3,24.213,19.9996,0.00709488,488.539,0.00177372,122.135,NaN
68583.6,24.1684,19.9995,0.00706464,490.333,0.00176616,122.583,NaN
68800.2,24.208,19.9997,0.00703892,491.86,0.00175973,122.965,NaN
69042.1,24.2061,19.9996,0.00701051,493.56,0.00175263,123.39,NaN
69353.1,24.1841,19.9999,0.00697417,495.734,0.00174354,123.934,NaN
69662.5,24.1659,19.9998,0.00693803,497.886,0.00173451,124.472,NaN
69833.5,24.1776,19.9999,0.00691844,499.071,0.00172961,124.768,NaN
70085.1,24.175,19.9997,0.00688972,500.808,0.00172243,125.202,NaN
70254.8,24.1988,19.9998,0.00687037,501.976,0.00171759,125.494,NaN
70462.1,24.1789,20.0003,0.006847,503.397,0.00171175,125.849,NaN
70816.5,24.1639,19.9998,0.00680706,505.817,0.00170176,126.454,NaN
71110.8,24.1506,20,0.00677453,507.816,0.00169363,126.954,NaN
71315.6,24.1695,19.9997,0.00675196,509.201,0.00168799,127.3,NaN
71569.8,24.1949,20,0.00672427,510.913,0.00168107,127.728,NaN
71797.6,24.2074,19.9995,0.00669949,512.442,0.00167487,128.11,NaN
72050.7,24.1507,19.9997,0.00667237,514.134,0.00166809,128.534,NaN
72313.7,24.2047,20,0.00664445,515.886,0.00166111,128.971,NaN
72549,24.127,19.9997,0.00661921,517.446,0.0016548,129.361,NaN
72814.8,24.1397,19.9996,0.00659129,519.202,0.00164782,129.8,NaN
73005.3,24.1783,19.9992,0.00657138,520.455,0.00164284,130.114,NaN
73234.5,24.1659,19.9998,0.00654735,521.959,0.00163684,130.49,NaN
73480.2,24.1614,20.0001,0.00652261,523.565,0.00163065,130.891,NaN
73716.8,24.1573,20.0001,0.00649887,525.105,0.00162472,131.276,NaN
73954.7,24.1418,19.9996,0.0064744,526.648,0.0016186,131.662,NaN
74170.6,24.1789,19.9994,0.00645307,528.043,0.00161327,132.011,NaN
74404.1,24.2024,20.0002,0.00642961,529.548,0.0016074,132.387,NaN
74616,24.1728,20,0.00640855,530.907,0.00160214,132.727,NaN
74833.6,24.1435,19.9998,0.00638703,532.299,0.00159676,133.075,NaN
75113.2,24.1596,20.0007,0.00635938,534.081,0.00158984,133.52,NaN
75364.4,24.1386,19.9996,0.00633494,535.676,0.00158374,133.919,NaN
75552,24.1251,19.9992,0.00631694,536.862,0.00157923,134.216,NaN
75798.1,24.1146,19.9996,0.0062932,538.414,0.0015733,134.604,NaN
76105.2,24.1139,19.9995,0.00626359,540.343,0.0015659,135.086,NaN
76346,24.1299,19.9998,0.00624065,541.848,0.00156016,135.462,NaN
76563.6,24.1427,19.9994,0.00622011,543.203,0.00155503,135.801,NaN
76800.6,24.1107,20,0.00619775,544.675,0.00154944,136.169,NaN
77067.5,24.1389,20,0.00617287,546.326,0.00154322,136.582,NaN
77342.7,24.1098,20.0001,0.00614726,548.021,0.00153681,137.005,NaN
77629.1,24.1552,19.9996,0.00612116,549.778,0.00153029,137.445,NaN
77955.4,24.1524,20,0.0060913,551.771,0.00152282,137.943,NaN
78249.8,24.1096,19.9992,0.00606453,553.56,0.00151613,138.39,NaN
78539.2,24.1381,19.9998,0.00603825,555.311,0.00150956,138.828,NaN
78723.1,24.0941,19.999,0.00602138,556.42,0.00150535,139.105,NaN
79002.9,24.1229,19.9998,0.00599657,558.102,0.00149914,139.525,NaN
79345.7,24.134,20,0.00596566,560.152,0.00149142,140.038,NaN
79580.5,24.0817,19.9994,0.00594454,561.55,0.00148614,140.388,NaN
79838.3,24.1265,19.9998,0.00592144,563.079,0.00148036,140.77,NaN
80195.6,24.1036,19.9994,0.00588997,565.189,0.00147249,141.297,NaN
80415.3,24.0957,19.9999,0.00587057,566.482,0.00146764,141.62,NaN
80655.4,24.1081,20.0001,0.00584962,567.889,0.00146241,141.972,NaN
80898.7,24.1156,19.9999,0.00582824,569.309,0.00145706,142.327,NaN
81136.5,24.1405,19.9996,0.00580768,570.693,0.00145192,142.673,NaN
81321.4,24.1251,19.9999,0.00579145,571.765,0.00144786,142.941,NaN
81577,24.0821,20.0001,0.00576938,573.242,0.00144234,143.311,NaN
81918.1,24.1346,19.9996,0.00574026,575.205,0.00143507,143.801,NaN
82153.1,24.1154,20,0.00572008,576.552,0.00143002,144.138,NaN
82377.6,24.1231,20,0.00570104,577.834,0.00142526,144.458,NaN
82591.7,24.1008,19.9996,0.00568296,579.053,0.00142074,144.763,NaN
82775.3,24.1164,20,0.00566748,580.095,0.00141687,145.024,NaN
83023,24.133,20,0.00564653,581.496,0.00141163,145.374,NaN
83260.8,24.1108,19.9998,0.00562641,582.837,0.0014066,145.709,NaN
83530.3,24.1265,19.9996,0.00560406,584.35,0.00140101,146.087,NaN
83752.1,24.1527,19.9998,0.00558583,585.591,0.00139646,146.398,NaN
83976.4,24.1291,19.9998,0.00556757,586.841,0.00139189,146.71,NaN
84220,24.1415,20,0.00554763,588.195,0.00138691,147.049,NaN
84478.8,24.1619,19.9997,0.00552647,589.628,0.00138162,147.407,NaN
84718.4,24.1094,19.9998,0.00550716,590.95,0.00137679,147.737,NaN
84928.5,24.1627,19.9997,0.00548998,592.106,0.0013725,148.026,NaN
85140.8,24.1138,19.9996,0.00547275,593.269,0.00136819,148.317,NaN
85330.9,24.1798,20,0.0054574,594.308,0.00136435,148.577,NaN
85544.9,24.1515,19.9995,0.00544039,595.474,0.0013601,148.869,NaN
85769.9,24.1366,19.9998,0.00542269,596.696,0.00135567,149.174,NaN
85988.1,24.1091,19.9997,0.0054054,597.878,0.00135135,149.469,NaN
86239.7,24.1617,19.9999,0.00538576,599.235,0.00134644,149.809,NaN
86568.8,24.1589,20,0.00536004,601.003,0.00134001,150.251,NaN
86833.7,24.1294,19.9998,0.00533968,602.42,0.00133492,150.605,NaN
87040.8,24.1124,19.9996,0.0053237,603.525,0.00133092,150.881,NaN
87211.9,24.1455,20.0001,0.00531067,604.435,0.00132767,151.109,NaN
87417.4,24.1589,19.9998,0.00529501,605.524,0.00132375,151.381,NaN
87604.9,24.1455,19.9997,0.00528094,606.516,0.00132024,151.629,NaN
87853.6,24.1353,20.0002,0.00526223,607.827,0.00131556,151.957,NaN
88113.8,24.1361,20,0.00524275,609.194,0.00131069,152.298,NaN
88341.9,24.141,19.9997,0.00522596,610.387,0.00130649,152.597,NaN
88602.2,24.1441,19.9999,0.00520647,611.745,0.00130162,152.936,NaN
88822.3,24.1533,19.9999,0.00519034,612.889,0.00129759,153.222,NaN
89097.5,24.1768,20.0001,0.00517008,614.315,0.00129252,153.579,NaN
89298.7,24.1618,19.9997,0.00515549,615.354,0.00128887,153.838,NaN
89478.1,24.1653,19.9998,0.0051429,616.278,0.00128572,154.069,NaN
89712.2,24.1567,20,0.00512632,617.479,0.00128158,154.37,NaN
90021.4,24.1431,19.9997,0.00510424,619.061,0.00127606,154.765,NaN
90252.3,24.2154,19.9997,0.00508774,620.237,0.00127193,155.059,NaN
90566.7,24.1589,19.9996,0.00506617,621.834,0.00126654,155.458,NaN
90798.4,24.1831,19.9998,0.00505004,623.006,0.00126251,155.751,NaN
91029.7,24.185,19.9999,0.005034,624.172,0.0012585,156.043,NaN
91209.3,24.1441,19.9997,0.00502169,625.075,0.00125542,156.269,NaN
91427.5,24.1503,19.9999,0.00500659,626.169,0.00125165,156.542,NaN
91622.4,24.1739,19.9996,0.00499366,627.144,0.00124841,156.786,NaN
91885.7,24.1399,19.9996,0.00497587,628.456,0.00124397,157.114,NaN
92081.8,24.1595,19.9997,0.00496268,629.43,0.00124067,157.358,NaN
92259.6,24.1652,19.9998,0.0049507,630.312,0.00123768,157.578,NaN
92478.5,24.2131,20.0003,0.00493633,631.394,0.00123408,157.848,NaN
92730.5,24.1841,19.9998,0.00491937,632.636,0.00122984,158.159,NaN
92962.9,24.1807,20.0001,0.00490401,633.777,0.001226,158.444,NaN
93164.9,24.2122,20.0002,0.00489116,634.767,0.00122279,158.692,NaN
93389.3,24.1984,19.9993,0.00487647,635.863,0.00121912,158.966,NaN
93572.2,24.1825,19.9997,0.00486434,636.753,0.00121609,159.188,NaN
93784.2,24.1709,20.0004,0.00485075,637.783,0.00121269,159.446,NaN
94086.6,24.2237,19.9997,0.00483171,639.247,0.00120793,159.812,NaN
94352.2,24.2033,19.9996,0.00481439,640.528,0.0012036,160.132,NaN
94641.3,24.2101,19.9998,0.00479618,641.917,0.00119905,160.479,NaN
94864,24.1543,19.9996,0.00478231,642.984,0.00119558,160.746,NaN
95225.9,24.2068,19.9998,0.00476036,644.711,0.00119009,161.178,NaN
95475.3,24.1793,19.9998,0.0047448,645.896,0.0011862,161.474,NaN
95708.3,24.2057,20.0001,0.00473067,647,0.00118267,161.75,NaN
95912.1,24.1177,19.9997,0.00471836,647.963,0.00117959,161.991,NaN
96137.2,24.1976,19.9994,0.00470451,649.023,0.00117613,162.256,NaN
96350.8,24.2021,20,0.00469177,650.026,0.00117294,162.507,NaN
96618.7,24.163,19.9998,0.00467589,651.281,0.00116897,162.82,NaN
96909.1,24.1892,19.9993,0.00465918,652.637,0.00116479,163.159,NaN
97220.2,24.2235,20,0.00464085,654.083,0.00116021,163.521,NaN
97421.7,24.1892,19.9998,0.00462935,655.017,0.00115734,163.754,NaN
97654,24.1979,20.0004,0.00461571,656.091,0.00115393,164.023,NaN
97898.7,24.1875,19.9997,0.00460156,657.219,0.00115039,164.305,NaN
98150.3,24.1423,20.0001,0.0045873,658.375,0.00114682,164.594,NaN
98386.6,24.1629,19.9997,0.00457408,659.457,0.00114352,164.864,NaN
98729.8,24.1843,20,0.00455507,661.024,0.00113877,165.256,NaN
99011.5,24.1974,20,0.00453947,662.305,0.00113487,165.576,NaN
99257.7,24.1944,20.0001,0.00452568,663.421,0.00113142,165.855,NaN
99526.1,24.2099,19.9997,0.0045108,664.633,0.0011277,166.158,NaN
99737.7,24.1822,19.9999,0.0044994,665.586,0.00112485,166.397,NaN
100021,24.1848,19.9998,0.0044838,666.859,0.00112095,166.715,NaN
100281,24.1725,19.9995,0.00447012,668.023,0.00111753,167.006,NaN
100492,24.1842,19.9994,0.00445918,668.964,0.00111479,167.241,NaN
100792,24.1749,19.9996,0.00444382,670.301,0.00111096,167.575,NaN
101039,24.1637,20.0002,0.00443131,671.398,0.00110783,167.849,NaN
101292,24.2075,19.9998,0.00441823,672.516,0.00110456,168.129,NaN
101552,24.1523,19.9996,0.00440501,673.663,0.00110125,168.416,NaN
101777,24.2077,19.9995,0.00439357,674.653,0.00109839,168.663,NaN
102129,24.1932,19.9996,0.00437599,676.197,0.001094,169.049,NaN
102400,24.2249,19.9997,0.00436245,677.38,0.00109061,169.345,NaN
102636,24.1716,19.9995,0.00435103,678.41,0.00108776,169.602,NaN
102927,24.196,19.9999,0.00433669,679.672,0.00108417,169.918,NaN
103220,24.1745,20,0.00432233,680.942,0.00108058,170.235,NaN
103428,24.1957,19.9998,0.00431207,681.838,0.00107802,170.459,NaN
103761,24.1781,20.0002,0.00429595,683.273,0.00107399,170.818,NaN
104018,24.1873,19.9999,0.00428366,684.376,0.00107091,171.094,NaN
104418,24.202,19.9999,0.00426459,686.086,0.00106615,171.521,NaN
104628,24.1915,20.0002,0.00425452,686.981,0.00106363,171.745,NaN
104937,24.1933,19.9997,0.00423966,688.29,0.00105991,172.072,NaN
105201,24.208,19.9995,0.00422744,689.409,0.00105686,172.352,NaN
105415,24.3623,19.9999,0.00421737,690.314,0.00105434,172.578,NaN
105684,24.2841,19.9999,0.00420491,691.444,0.00105123,172.861,NaN
105918,24.3246,20,0.00419427,692.43,0.00104857,173.107,NaN
106142,24.3058,20.0002,0.00418459,693.369,0.00104615,173.342,NaN
106425,24.345,20.0007,0.00417236,694.55,0.00104309,173.638,NaN
106628,24.3378,20.0004,0.00416359,695.394,0.0010409,173.848,NaN
106889,24.3129,19.9997,0.00415186,696.478,0.00103796,174.12,NaN
107139,24.2962,19.9999,0.00414034,697.515,0.00103508,174.379,NaN
107330,24.2828,19.9999,0.00413176,698.305,0.00103294,174.576,NaN
107585,24.2759,20,0.00412009,699.357,0.00103002,174.839,NaN
107857,24.2377,19.9997,0.00410799,700.478,0.001027,175.119,NaN
108112,24.2726,19.9992,0.00409647,701.524,0.00102412,175.381,NaN
108391,24.2622,20,0.00408405,702.664,0.00102101,175.666,NaN
108718,24.2673,20.0002,0.00406922,703.996,0.0010173,175.999,NaN
108988,24.266,20,0.00405738,705.096,0.00101434,176.274,NaN
109342,24.2548,19.9999,0.00404114,706.53,0.00101029,176.633,NaN
109579,24.2753,19.9999,0.00403038,707.487,0.0010076,176.872,NaN
109820,24.2928,20,0.00401969,708.457,0.00100492,177.114,NaN
110110,24.2749,19.9997,0.00400625,709.619,0.00100156,177.405,NaN
110369,24.2551,19.9997,0.00399458,710.653,0.000998645,177.663,NaN
110671,24.2578,19.9999,0.00398079,711.858,0.000995196,177.965,NaN
110998,24.2516,20,0.00396587,713.158,0.000991469,178.29,NaN
111325,24.2574,20.0001,0.00395087,714.452,0.000987718,178.613,NaN
111591,24.2571,20,0.00393911,715.504,0.000984777,178.876,NaN
111883,24.2566,19.9998,0.00392569,716.651,0.000981422,179.163,NaN
112216,24.2305,19.9999,0.0039108,717.954,0.000977699,179.488,NaN
112540,24.2583,19.9998,0.0038957,719.222,0.000973924,179.805,NaN
112895,24.2414,20.0001,0.00387944,720.6,0.00096986,180.15,NaN
113131,24.2472,19.9996,0.00386902,721.514,0.000967256,180.379,NaN
113356,24.3029,19.9996,0.00385882,722.382,0.000964704,180.596,NaN
113668,24.2433,19.9997,0.0038448,723.587,0.0009612,180.897,NaN
113954,24.2675,19.9995,0.00383201,724.684,0.000958003,181.171,NaN
114204,24.2487,19.9994,0.00382085,725.64,0.000955213,181.41,NaN
114487,24.2672,19.9994,0.00380783,726.72,0.000951959,181.68,NaN
114752,24.265,19.9991,0.0037959,727.725,0.000948976,181.931,NaN
115085,24.2652,19.9994,0.00378048,728.987,0.000945119,182.247,NaN
115347,24.2794,20.0001,0.0037686,729.976,0.00094215,182.494,NaN
115658,24.251,19.9998,0.00375441,731.146,0.000938602,182.787,NaN
115905,24.2552,19.9997,0.00374273,732.073,0.000935682,183.018,NaN
116207,24.217,19.9999,0.00372849,733.201,0.000932124,183.3,NaN
116453,24.2188,20,0.00371718,734.117,0.000929295,183.529,NaN
116697,24.2351,20.0001,0.00370565,735.024,0.000926413,183.756,NaN
116953,24.2217,20.0001,0.00369377,735.97,0.000923443,183.993,NaN
117220,24.2163,19.9996,0.003681,736.953,0.000920249,184.238,NaN
117546,24.1569,19.9998,0.00366528,738.15,0.00091632,184.538,NaN
117859,24.225,19.9997,0.00365049,739.298,0.000912623,184.824,NaN
118113,24.2171,19.9994,0.00363816,740.224,0.000909541,185.056,NaN
118392,24.2108,19.9998,0.0036246,741.236,0.000906151,185.309,NaN
118620,24.2142,19.9998,0.00361373,742.06,0.000903433,185.515,NaN
118937,24.1895,19.9994,0.00359856,743.204,0.00089964,185.801,NaN
119165,24.1469,19.9996,0.00358781,744.023,0.000896951,186.006,NaN
119366,24.1944,19.9995,0.00357837,744.744,0.000894592,186.186,NaN
119685,24.2082,19.9998,0.00356289,745.882,0.000890721,186.47,NaN
119990,24.1734,19.9996,0.00354836,746.967,0.000887089,186.742,NaN
120271,24.1886,19.9997,0.00353484,747.961,0.000883711,186.99,NaN
120575,24.1806,19.9999,0.00352005,749.036,0.000880013,187.259,NaN
120878,24.1696,19.9992,0.00350556,750.098,0.000876389,187.525,NaN
121198,24.1511,19.9997,0.00348999,751.219,0.000872497,187.805,NaN
121404,24.1648,20.0005,0.00348008,751.935,0.00087002,187.984,NaN
121680,24.1771,20.0003,0.00346685,752.893,0.000866712,188.223,NaN
121918,24.1885,19.9998,0.00345515,753.716,0.000863788,188.429,NaN
122180,24.1561,19.9996,0.00344247,754.623,0.000860617,188.656,NaN
122405,24.1676,19.9995,0.00343131,755.393,0.000857827,188.848,NaN
122779,24.1662,19.9999,0.00341285,756.675,0.000853212,189.169,NaN
123084,24.1627,20,0.00339832,757.714,0.000849579,189.429,NaN
123375,24.1531,19.9997,0.0033842,758.7,0.00084605,189.675,NaN
123734,24.1663,20,0.00336666,759.911,0.000841665,189.978,NaN
123993,24.1534,19.9998,0.0033547,760.782,0.000838674,190.196,NaN
124255,24.15,19.9994,0.00334195,761.658,0.000835488,190.415,NaN
124507,24.1766,19.9994,0.00332965,762.499,0.000832413,190.625,NaN
124788,24.1584,19.9999,0.00331587,763.434,0.000828967,190.859,NaN
125036,24.1633,20,0.00330419,764.254,0.000826047,191.064,NaN
125279,24.1342,19.9999,0.00329263,765.058,0.000823158,191.264,NaN
125525,24.1438,19.9997,0.00328101,765.864,0.000820252,191.466,NaN
125780,24.138,19.9995,0.00326886,766.701,0.000817216,191.675,NaN
126087,24.152,19.9997,0.00325447,767.702,0.000813619,191.926,NaN
126387,24.1634,19.9998,0.00324063,768.676,0.000810157,192.169,NaN
126725,24.1235,20.0001,0.00322441,769.769,0.000806102,192.442,NaN
126953,24.1415,20.0003,0.00321383,770.502,0.000803457,192.625,NaN
127210,24.1612,20,0.00320182,771.328,0.000800455,192.832,NaN
127483,24.1374,20.0001,0.00318907,772.199,0.000797268,193.05,NaN
127724,24.1483,19.9995,0.00317804,772.966,0.000794509,193.241,NaN
127952,24.128,19.9983,0.00316744,773.69,0.00079186,193.422,NaN
128213,24.1177,20.0003,0.00315564,774.513,0.000788911,193.628,NaN
128555,24.1388,19.9996,0.00314042,775.592,0.000785104,193.898,NaN
128890,24.1125,20,0.00312545,776.641,0.000781363,194.16,NaN
129111,24.155,19.9998,0.00311579,777.331,0.000778948,194.333,NaN
129405,24.1203,19.9999,0.00310267,778.244,0.000775667,194.561,NaN
129683,24.1165,19.9999,0.00309043,779.106,0.000772607,194.777,NaN
129948,24.1465,20,0.00307873,779.924,0.000769683,194.981,NaN
130282,24.1431,19.9994,0.00306447,780.949,0.000766118,195.237,NaN
130641,24.1203,19.9999,0.00304962,782.045,0.000762406,195.511,NaN
130928,24.1616,19.9998,0.00303741,782.919,0.000759353,195.73,NaN
131174,24.129,19.9999,0.00302753,783.667,0.000756884,195.917,NaN
131406,24.1453,19.9986,0.00301813,784.366,0.000754533,196.091,NaN
131681,24.1267,19.9994,0.00300721,785.195,0.000751803,196.299,NaN
131944,24.1262,19.9996,0.00299671,785.986,0.000749178,196.497,NaN
132200,24.1146,19.9996,0.00298679,786.752,0.000746698,196.688,NaN
132425,24.113,19.9997,0.00297822,787.423,0.000744555,196.856,NaN
132672,24.1291,20.0001,0.00296913,788.155,0.000742283,197.039,NaN
132874,24.0925,19.9999,0.00296153,788.755,0.000740382,197.189,NaN
133128,24.1173,19.9997,0.00295166,789.508,0.000737916,197.377,NaN
133406,24.1069,19.9999,0.00294114,790.325,0.000735285,197.581,NaN
133687,24.1067,19.9997,0.00293094,791.151,0.000732736,197.788,NaN
134000,24.1166,19.9998,0.00291908,792.065,0.000729771,198.016,NaN
134277,24.1091,19.9997,0.00290879,792.873,0.000727199,198.218,NaN
134553,24.0879,19.9996,0.00289921,793.676,0.000724804,198.419,NaN
134949,24.0982,19.9999,0.00288538,794.819,0.000721345,198.705,NaN
135219,24.1072,20.0001,0.00287586,795.599,0.000718964,198.9,NaN
135440,24.113,19.9999,0.00286846,796.231,0.000717116,199.058,NaN
135685,24.0743,19.9997,0.00286008,796.933,0.000715021,199.233,NaN
135986,24.0924,20.0001,0.00285021,797.792,0.000712552,199.448,NaN
136214,24.1287,19.9999,0.00284228,798.442,0.00071057,199.61,NaN
136431,24.0821,19.9999,0.00283495,799.058,0.000708738,199.764,NaN
136666,24.0819,19.9998,0.00282737,799.724,0.000706842,199.931,NaN
136921,24.0836,19.9998,0.00281916,800.443,0.00070479,200.111,NaN
137167,24.1016,19.9995,0.00281167,801.136,0.000702917,200.284,NaN
137384,24.0801,19.9998,0.00280445,801.746,0.000701112,200.437,NaN
137780,24.0755,19.9999,0.00279242,802.854,0.000698104,200.714,NaN
138054,24.0423,20.0001,0.00278381,803.617,0.000695953,200.904,NaN
138332,24.0803,20.0002,0.00277602,804.389,0.000694006,201.097,NaN
138546,24.0668,19.9997,0.00276891,804.983,0.000692228,201.246,NaN
138744,24.0701,20,0.00276293,805.533,0.000690732,201.383,NaN
139088,24.0609,20.0001,0.00275263,806.479,0.000688157,201.62,NaN
139401,24.0727,20,0.00274345,807.341,0.000685862,201.835,NaN
139718,24.0665,19.9995,0.00273446,808.209,0.000683614,202.052,NaN
140050,24.0684,19.9994,0.00272465,809.116,0.000681162,202.279,NaN
140309,24.076,19.9995,0.0027175,809.821,0.000679376,202.455,NaN
140544,24.0737,20.0001,0.00271091,810.457,0.000677728,202.614,NaN
140858,24.0427,20,0.00270209,811.307,0.000675523,202.827,NaN
141125,24.0648,19.9995,0.00269421,812.029,0.000673552,203.007,NaN
141356,24.0832,19.9999,0.00268792,812.65,0.000671979,203.163,NaN
141571,24.0494,19.9998,0.00268179,813.227,0.000670447,203.307,NaN
141785,24.0778,20,0.00267588,813.8,0.00066897,203.45,NaN
142035,24.0286,19.9998,0.00266888,814.468,0.000667221,203.617,NaN
142293,24.0279,20.0001,0.00266174,815.155,0.000665434,203.789,NaN
142548,24.0568,19.9996,0.00265472,815.833,0.000663681,203.958,NaN
142771,24.0298,19.9999,0.0026489,816.424,0.000662225,204.106,NaN
143045,24.0591,19.9996,0.00264145,817.151,0.000660363,204.288,NaN
143361,24.0637,19.9999,0.00263289,817.983,0.000658224,204.496,NaN
143603,24.0253,19.9997,0.00262642,818.62,0.000656605,204.655,NaN
143868,24.0645,20.0003,0.00261987,819.314,0.000654969,204.829,NaN
144209,24.0528,19.9996,0.00261108,820.208,0.000652771,205.052,NaN
144522,24.0319,20.0001,0.0026027,821.022,0.000650676,205.256,NaN
144713,24.0242,19.9996,0.00259756,821.519,0.00064939,205.38,NaN
144973,23.9892,20.0002,0.00259083,822.194,0.000647706,205.549,NaN
145276,24.0278,19.9995,0.0025835,822.976,0.000645875,205.744,NaN
145529,24.0432,20.0004,0.00257703,823.63,0.000644259,205.908,NaN
145802,24.0215,20.0002,0.00257014,824.333,0.000642535,206.083,NaN
146000,24.0287,19.9999,0.00256522,824.84,0.000641304,206.21,NaN
146212,24.0633,19.9998,0.00255921,825.385,0.000639802,206.346,NaN
146449,24.0087,19.9998,0.00255339,825.99,0.000638347,206.497,NaN
146686,24.0311,19.9998,0.0025473,826.594,0.000636824,206.649,NaN
146920,24.0375,19.9997,0.00254108,827.19,0.00063527,206.798,NaN
147104,24.0335,20.0001,0.00253591,827.657,0.000633977,206.914,NaN
147293,24.0395,19.9997,0.00253135,828.135,0.000632837,207.034,NaN
147584,23.988,19.9996,0.00252447,828.87,0.000631119,207.218,NaN
147779,24.0193,20.0003,0.00251941,829.363,0.000629853,207.341,NaN
148034,24.0043,20,0.00251341,830.004,0.000628353,207.501,NaN
148294,24.0183,19.9997,0.00250698,830.657,0.000626744,207.664,NaN
148554,24.0137,19.9997,0.00250056,831.308,0.000625139,207.827,NaN
148836,24.0106,19.9997,0.00249385,832.012,0.000623463,208.003,NaN
149071,24.0093,19.9997,0.00248826,832.598,0.000622066,208.15,NaN
149372,23.9976,19.9997,0.00248109,833.347,0.000620272,208.337,NaN
149655,24.0403,19.9998,0.00247405,834.047,0.000618514,208.512,NaN
149967,24.0101,20,0.00246695,834.818,0.000616738,208.704,NaN
150202,23.9952,19.9998,0.00246135,835.397,0.000615337,208.849,NaN
150465,24.0036,19.9997,0.00245574,836.045,0.000613936,209.011,NaN
150733,23.9902,19.9997,0.00244949,836.7,0.000612372,209.175,NaN
151098,23.9954,19.9999,0.00244108,837.593,0.000610269,209.398,NaN
151422,23.991,19.9993,0.00243364,838.384,0.000608411,209.596,NaN
151661,24.0025,20,0.00242834,838.965,0.000607084,209.741,NaN
151970,23.9919,19.9997,0.00242135,839.713,0.000605337,209.928,NaN
152285,23.961,19.9998,0.00241435,840.476,0.000603588,210.119,NaN
152543,24.0021,19.9996,0.00240852,841.097,0.00060213,210.274,NaN
152791,23.9916,19.9998,0.00240262,841.693,0.000600654,210.423,NaN
152996,24.0024,19.9997,0.0023983,842.185,0.000599575,210.546,NaN
153213,23.9774,20.0002,0.00239342,842.705,0.000598355,210.676,NaN
153538,24.0135,19.9993,0.00238621,843.482,0.000596554,210.87,NaN
153853,23.9874,19.9996,0.00237968,844.232,0.00059492,211.058,NaN
154084,23.9688,20,0.00237492,844.782,0.00059373,211.196,NaN
154413,23.9656,19.9998,0.00236774,845.562,0.000591935,211.39,NaN
154673,23.9782,19.9999,0.00236251,846.177,0.000590628,211.544,NaN
154999,23.9627,19.9998,0.00235552,846.947,0.000588879,211.737,NaN
155236,23.9677,19.9998,0.00235066,847.504,0.000587666,211.876,NaN
155518,23.9918,19.9997,0.0023444,848.167,0.000586099,212.042,NaN
155837,23.9586,19.9996,0.00233777,848.913,0.000584442,212.228,NaN
156159,23.9696,19.9997,0.00233089,849.665,0.000582723,212.416,NaN
156437,23.9662,20,0.00232526,850.313,0.000581314,212.578,NaN
156743,23.9783,19.9994,0.00231888,851.022,0.000579721,212.756,NaN
157026,23.954,19.9998,0.00231291,851.677,0.000578229,212.919,NaN
157236,23.9405,19.9997,0.00230869,852.164,0.000577173,213.041,NaN
157519,23.9456,19.9999,0.00230297,852.817,0.000575743,213.204,NaN
157846,23.9333,19.9996,0.00229685,853.568,0.000574211,213.392,NaN
158125,23.9439,19.9993,0.00228913,854.208,0.000572283,213.552,NaN
158390,23.945,19.9996,0.00228287,854.813,0.000570716,213.703,NaN
158665,23.9414,20,0.00227763,855.441,0.000569407,213.86,NaN
158858,23.9622,19.9999,0.00227413,855.88,0.000568532,213.97,NaN
159142,23.9439,19.9998,0.00226872,856.526,0.000567181,214.131,NaN
159436,23.9173,19.9997,0.00226342,857.191,0.000565856,214.298,NaN
159733,23.918,19.9999,0.00225811,857.863,0.000564528,214.466,NaN
159989,23.9242,19.9999,0.00225362,858.44,0.000563404,214.61,NaN
160239,23.9042,19.9995,0.00224911,859.002,0.000562277,214.751,NaN
160469,23.9044,20.0004,0.00224449,859.521,0.000561123,214.88,NaN
160790,23.9053,20.0001,0.00223897,860.24,0.000559742,215.06,NaN
161028,23.907,20.0003,0.00223466,860.772,0.000558664,215.193,NaN
161244,23.9193,20.0004,0.00223059,861.255,0.000557648,215.314,NaN
161557,23.8967,20.0003,0.00222471,861.95,0.000556177,215.488,NaN
161807,23.9032,19.9996,0.00222027,862.507,0.000555068,215.627,NaN
162098,23.871,19.9999,0.00221507,863.151,0.000553767,215.788,NaN
162290,23.9258,19.9997,0.00221152,863.577,0.000552881,215.894,NaN
162572,23.8812,19.9992,0.00220654,864.201,0.000551635,216.05,NaN
162766,23.9279,19.9999,0.00220274,864.627,0.000550686,216.157,NaN
163014,23.9006,19.9993,0.00219843,865.173,0.000549607,216.293,NaN
163240,23.8791,19.9998,0.002194,865.671,0.000548499,216.418,NaN
163469,23.8837,19.9996,0.00219055,866.172,0.000547639,216.543,NaN
163765,23.8916,20.0003,0.00218572,866.819,0.00054643,216.705,NaN
164021,23.8598,19.9999,0.0021812,867.379,0.000545301,216.845,NaN
164316,23.8767,19.9999,0.00217576,868.022,0.00054394,217.005,NaN
164537,23.8325,19.9998,0.00217216,868.503,0.000543039,217.126,NaN
164828,23.881,19.9997,0.00216721,869.133,0.000541803,217.283,NaN
165034,23.8797,20.0003,0.00216362,869.58,0.000540904,217.395,NaN
165329,23.8749,19.9995,0.00215819,870.215,0.000539548,217.554,NaN
165651,23.8644,19.9999,0.00215298,870.911,0.000538246,217.728,NaN
165926,23.8871,19.9991,0.00214811,871.501,0.000537028,217.875,NaN
166133,23.8544,19.9999,0.00214477,871.946,0.000536192,217.987,NaN
166368,23.8633,20,0.00214093,872.449,0.000535233,218.112,NaN
166644,23.8549,19.9999,0.00213647,873.04,0.000534117,218.26,NaN
166902,23.8648,19.9995,0.00213234,873.592,0.000533085,218.398,NaN
167261,23.8602,20.0001,0.00212669,874.354,0.000531672,218.589,NaN
167541,23.8599,20.0001,0.0021225,874.95,0.000530625,218.737,NaN
167820,23.8538,19.9997,0.00211796,875.542,0.00052949,218.885,NaN
168065,23.8344,19.9995,0.00211363,876.059,0.000528408,219.015,NaN
168298,23.8574,20.0001,0.00210997,876.552,0.000527494,219.138,NaN
168543,23.8264,19.9995,0.00210571,877.068,0.000526428,219.267,NaN
168777,23.8256,19.9998,0.00210261,877.561,0.000525651,219.39,NaN
169011,23.8647,19.9998,0.00209907,878.052,0.000524768,219.513,NaN
169301,23.8234,19.9997,0.0020945,878.661,0.000523626,219.665,NaN
169598,23.8323,20,0.00209033,879.281,0.000522583,219.82,NaN
169812,23.8618,20.0001,0.00208759,879.729,0.000521897,219.932,NaN
170002,23.7911,19.9998,0.00208482,880.125,0.000521205,220.031,NaN
170263,23.8475,20.0002,0.00208155,880.669,0.000520387,220.167,NaN
170524,23.8302,19.9995,0.00207768,881.213,0.000519421,220.303,NaN
170774,23.8598,19.9994,0.00207437,881.73,0.000518593,220.433,NaN
171028,23.8599,19.9998,0.00207077,882.257,0.000517694,220.564,NaN
171325,23.8302,19.9999,0.0020667,882.872,0.000516675,220.718,NaN
171555,23.8708,19.9999,0.00206388,883.346,0.000515971,220.837,NaN
171824,23.8639,19.9998,0.00206041,883.902,0.000515102,220.975,NaN
172040,23.8755,20.0003,0.00205791,884.346,0.000514476,221.087,NaN
172297,23.863,20.0001,0.00205489,884.875,0.000513723,221.219,NaN
172460,23.8928,19.9993,0.00205294,885.209,0.000513235,221.302,NaN
172710,23.8549,19.9998,0.00204987,885.722,0.000512468,221.43,NaN
172984,23.8827,19.9996,NaN,NaN,NaN,NaN,NaN
173318,23.8953,19.9998,NaN,NaN,NaN,NaN,NaN
173614,23.9023,19.9991,NaN,NaN,NaN,NaN,NaN
173888,23.895,20.0003,NaN,NaN,NaN,NaN,NaN
174136,23.9155,19.9993,NaN,NaN,NaN,NaN,NaN
174485,23.8943,19.9999,NaN,NaN,NaN,NaN,NaN
174847,23.9385,20,NaN,NaN,NaN,NaN,NaN
175219,23.9312,19.9997,NaN,NaN,NaN,NaN,NaN
175693,23.9084,19.9996,NaN,NaN,NaN,NaN,NaN
176047,23.9363,19.9999,NaN,NaN,NaN,NaN,NaN
176495,23.9388,19.9999,NaN,NaN,NaN,NaN,NaN
176783,23.9161,19.9996,NaN,NaN,NaN,NaN,NaN
177114,23.9299,19.9996,NaN,NaN,NaN,NaN,NaN
177372,23.9219,19.9997,NaN,NaN,NaN,NaN,NaN
177686,23.9259,19.9997,NaN,NaN,NaN,NaN,NaN
178132,23.9245,20.0004,NaN,NaN,NaN,NaN,NaN
178349,23.9836,19.9999,NaN,NaN,NaN,NaN,NaN
178683,23.9506,19.9998,NaN,NaN,NaN,NaN,NaN
178985,23.9355,19.9999,NaN,NaN,NaN,NaN,NaN
179323,23.94,20,NaN,NaN,NaN,NaN,NaN
179717,23.9511,19.9999,NaN,NaN,NaN,NaN,NaN
180120,23.9709,20.0001,NaN,NaN,NaN,NaN,NaN
180432,23.9681,20.0001,NaN,NaN,NaN,NaN,NaN
180742,23.9496,19.9995,NaN,NaN,NaN,NaN,NaN
181035,23.9858,20.0002,NaN,NaN,NaN,NaN,NaN
181292,23.9886,19.9997,NaN,NaN,NaN,NaN,NaN
181480,23.9914,20.0001,NaN,NaN,NaN,NaN,NaN
181870,23.9727,19.9995,NaN,NaN,NaN,NaN,NaN
182146,23.9387,20,NaN,NaN,NaN,NaN,NaN
182472,23.9659,19.9999,NaN,NaN,NaN,NaN,NaN
182850,23.9766,19.9995,NaN,NaN,NaN,NaN,NaN
183158,24.0059,19.9998,NaN,NaN,NaN,NaN,NaN
183491,23.9865,19.9999,NaN,NaN,NaN,NaN,NaN
183921,24.0344,20.0004,NaN,NaN,NaN,NaN,NaN
184202,24.0351,20,NaN,NaN,NaN,NaN,NaN
184462,23.9956,19.9997,NaN,NaN,NaN,NaN,NaN
184702,23.9979,19.9998,NaN,NaN,NaN,NaN,NaN
184969,23.9806,19.9996,NaN,NaN,NaN,NaN,NaN
185219,24.0233,19.9996,NaN,NaN,NaN,NaN,NaN
185537,24.0751,19.9997,NaN,NaN,NaN,NaN,NaN
185803,24.155,19.9995,NaN,NaN,NaN,NaN,NaN
186131,24.1508,19.9999,NaN,NaN,NaN,NaN,NaN
186527,24.1857,20.0002,NaN,NaN,NaN,NaN,NaN