File: TAInstCalorimetry/DATA/myexp4.csv
Time,Temperature [AmbientT(Therm3T)],Temperature [Temperature],Heat flow [Signal],Heat [Signal],Normalized heat flow [Signal],Normalized heat [Signal],Time markers
0.0,24.4833,20.0003,NaN,NaN,NaN,NaN,Reaction start
32.5357,24.4945,20.0002,0.00103,0.00298851,0.000257501,0.000747127,NaN
51.0454,24.4789,19.9999,0.0121206,0.107327,0.00303014,0.0268319,NaN
78.5357,24.5432,19.9999,0.0374379,0.786295,0.00935948,0.196574,NaN
99.5357,24.533,20.0001,0.0543899,1.75733,0.0135975,0.439333,NaN
119.536,24.5279,20,0.0665583,2.97332,0.0166396,0.743331,NaN
141.536,24.5238,20.0002,0.0757723,4.54624,0.0189431,1.13656,NaN
166.536,24.5221,20.0004,0.0820984,6.52742,0.0205246,1.63186,NaN
202.536,24.55,20.0004,0.0859916,9.56766,0.0214979,2.39191,NaN
235.054,24.5491,20.0001,0.0862633,12.3745,0.0215658,3.09364,NaN
278.536,24.6313,20.0003,0.0840393,16.0847,0.0210098,4.02117,NaN
334.036,24.5889,20.0002,0.0792891,20.6224,0.0198223,5.15561,NaN
414.516,24.5978,20.0002,0.0717902,26.6984,0.0179475,6.67461,NaN
487.223,24.5821,20.0003,0.0659625,31.6991,0.0164906,7.92477,NaN
557.536,24.5601,20.0001,0.0611949,36.167,0.0152987,9.04176,NaN
637.661,24.5108,19.9999,0.0554565,40.8475,0.0138641,10.2119,NaN
692.609,24.54,20.0002,0.0508395,43.7701,0.0127099,10.9425,NaN
762.536,24.5477,20,0.0445264,47.1055,0.0111316,11.7764,NaN
837.472,24.5354,19.9997,0.0379559,50.1923,0.00948899,12.5481,NaN
898.786,24.5275,19.9998,0.0331196,52.3685,0.0082799,13.0921,NaN
978.411,24.548,20,0.0277349,54.7844,0.00693373,13.6961,NaN
1045.1,24.5133,19.9999,0.0239851,56.5052,0.00599628,14.1263,NaN
1144.79,24.5538,19.9998,0.0194831,58.662,0.00487077,14.6655,NaN
1235.52,24.5231,19.9999,0.0163062,60.2798,0.00407655,15.0699,NaN
1338.72,24.5311,20,0.013508,61.8118,0.00337699,15.4529,NaN
1425.04,24.632,19.9994,0.0116785,62.8959,0.00291962,15.724,NaN
1540.91,24.5304,19.9998,0.0097718,64.1335,0.00244295,16.0334,NaN
1656.91,24.548,19.9997,0.00833304,65.1797,0.00208326,16.2949,NaN
1778.41,24.5385,19.9998,0.00718981,66.1196,0.00179745,16.5299,NaN
1921.38,24.5336,19.9992,0.00618134,67.0718,0.00154533,16.768,NaN
2080.05,24.5285,19.9998,0.00535774,67.9838,0.00133944,16.9959,NaN
2282.45,24.5752,19.9999,0.00460272,68.9872,0.00115068,17.2468,NaN
2446.8,24.5731,19.9996,0.00414967,69.7051,0.00103742,17.4263,NaN
2662.28,24.5372,19.9995,0.00369705,70.5481,0.000924261,17.637,NaN
2855.6,24.5499,19.9996,0.00338406,71.2313,0.000846014,17.8078,NaN
3087.81,24.5573,19.9998,0.0030874,71.9813,0.00077185,17.9953,NaN
3347.12,24.5507,19.9998,0.00282727,72.7468,0.000706817,18.1867,NaN
3509.9,24.5551,19.9994,0.00269196,73.1958,0.000672991,18.299,NaN
3737.87,24.5654,19.9994,0.00252995,73.7905,0.000632489,18.4476,NaN
3968.32,24.5877,19.9995,0.00239169,74.3571,0.000597924,18.5893,NaN
4148.76,24.5648,19.9998,0.00229728,74.78,0.000574319,18.695,NaN
4386.82,24.5789,20.0004,0.00218814,75.3136,0.000547036,18.8284,NaN
4578.06,24.5585,20,0.00211232,75.7247,0.000528079,18.9312,NaN
4763.2,24.5738,19.9995,0.00204692,76.1096,0.000511731,19.0274,NaN
5009.61,24.5721,20.0009,0.00196998,76.6043,0.000492495,19.1511,NaN
5296.88,24.5891,20.0001,0.00189404,77.159,0.00047351,19.2898,NaN
5507.41,24.5861,19.9997,0.001846,77.5526,0.0004615,19.3881,NaN
5735.17,24.5542,19.9998,0.00180033,77.9677,0.000450081,19.4919,NaN
6039.24,24.5681,19.9996,0.00174916,78.507,0.00043729,19.6267,NaN
6244.74,24.5953,19.9999,0.00172012,78.8635,0.00043003,19.7159,NaN
6453.03,24.5922,20.0003,0.00169479,79.2191,0.000423697,19.8048,NaN
6710.1,24.6185,20,0.00166847,79.6513,0.000417117,19.9128,NaN
6911.33,24.6319,19.9996,0.00165144,79.9853,0.000412861,19.9963,NaN
7099.94,24.6388,19.9995,0.00163826,80.2954,0.000409564,20.0739,NaN
7355.44,24.6301,20,0.0016228,80.712,0.000405699,20.178,NaN
7573.04,24.6186,19.9995,0.00161163,81.0639,0.000402909,20.266,NaN
7849.82,24.6127,19.9999,0.00160105,81.5083,0.000400264,20.3771,NaN
8068.5,24.6325,19.9998,0.00159823,81.8579,0.000399557,20.4645,NaN
8301.64,24.6113,19.9999,0.00160574,82.2312,0.000401436,20.5578,NaN
8568.16,24.6257,19.9998,0.00163047,82.6621,0.000407618,20.6655,NaN
8781.58,24.6185,19.9998,0.00166136,83.0132,0.00041534,20.7533,NaN
9048.1,24.5813,19.9997,0.00170638,83.4619,0.000426595,20.8655,NaN
9222.34,24.6179,19.9999,0.00173712,83.7618,0.000434281,20.9404,NaN
9471.41,24.6447,19.9996,0.0017815,84.2,0.000445376,21.05,NaN
9670.54,24.5887,19.9996,0.00181599,84.5581,0.000453999,21.1395,NaN
9888.78,24.5816,19.9999,0.00185376,84.9586,0.000463439,21.2397,NaN
10124.8,24.6251,20.0001,0.00189505,85.401,0.000473762,21.3503,NaN
10382.3,24.6236,20.0001,0.00194102,85.8949,0.000485256,21.4737,NaN
10626.4,24.6151,20,0.00198584,86.3742,0.000496461,21.5936,NaN
10845.5,24.5834,20.0002,0.00202657,86.8138,0.000506642,21.7035,NaN
11041.7,24.6418,19.9998,0.00206424,87.215,0.00051606,21.8037,NaN
11325.6,24.6242,20.0001,0.00211986,87.8089,0.000529964,21.9522,NaN
11482.3,24.6153,19.9994,0.00215142,88.1435,0.000537855,22.0359,NaN
11700.8,24.6359,19.9994,0.00219623,88.6186,0.000549058,22.1546,NaN
11916.2,24.6321,19.9998,0.00224041,89.0964,0.000560101,22.2741,NaN
12263.9,24.6121,19.9997,0.00231464,89.8882,0.00057866,22.472,NaN
12476.6,24.6121,19.9997,0.00236017,90.3854,0.000590043,22.5963,NaN
12699.4,24.598,20,0.00240878,90.9167,0.000602194,22.7292,NaN
12900.8,24.6296,19.9997,0.00245363,91.4062,0.000613408,22.8516,NaN
13135.4,24.6408,19.9992,0.00250638,91.988,0.000626596,22.997,NaN
13397.8,24.6257,19.9997,0.00256702,92.6535,0.000641754,23.1634,NaN
13631.1,24.5964,19.9999,0.00262187,93.2588,0.000655468,23.3147,NaN
13863.9,24.5767,19.9998,0.00267694,93.8758,0.000669235,23.4689,NaN
14079.2,24.5821,20,0.00272945,94.4581,0.000682362,23.6145,NaN
14371.6,24.6381,19.9999,0.00280232,95.2663,0.00070058,23.8166,NaN
14628.3,24.6355,19.9996,0.00286679,95.9939,0.000716697,23.9985,NaN
14839.2,24.6428,20.0001,0.00292104,96.6043,0.00073026,24.1511,NaN
15043.4,24.6445,19.9994,0.00297489,97.2063,0.000743721,24.3016,NaN
15224.8,24.638,19.9998,0.0030222,97.75,0.000755551,24.4375,NaN
15478.5,24.6283,19.9998,0.00309008,98.5255,0.000772519,24.6314,NaN
15662.3,24.6383,19.9994,0.00313963,99.0979,0.000784907,24.7745,NaN
15841,24.6183,19.9995,0.00318875,99.6636,0.000797187,24.9159,NaN
16066,24.6486,19.9997,0.00325032,100.388,0.00081258,25.097,NaN
16341.5,24.666,19.9998,0.00332723,101.294,0.000831809,25.3235,NaN
16579.3,24.5697,19.9997,0.00339475,102.093,0.000848687,25.5233,NaN
16849.2,24.6182,20.0001,0.00347231,103.02,0.000868077,25.7549,NaN
17129.8,24.6688,19.9994,0.00355362,104.005,0.000888406,26.0014,NaN
17324.9,24.64,19.9999,0.00361089,104.705,0.000902722,26.1761,NaN
17526.2,24.6608,19.9997,0.00367065,105.437,0.000917663,26.3593,NaN
17754.8,24.6317,19.9997,0.00373946,106.284,0.000934866,26.571,NaN
18027.5,24.6766,19.9999,0.00382187,107.315,0.000955467,26.8288,NaN
18268.4,24.6594,20.0001,0.00389509,108.245,0.000973773,27.0612,NaN
18505.2,24.6379,20.0001,0.00396803,109.176,0.000992007,27.2939,NaN
18784.9,24.6343,19.9999,0.00405559,110.298,0.0010139,27.5744,NaN
19017,24.6478,19.9998,0.00412806,111.248,0.00103202,27.8119,NaN
19262.6,24.6346,19.9998,0.00420573,112.271,0.00105143,28.0677,NaN
19445.4,24.6123,20.0007,0.00426429,113.045,0.00106607,28.2613,NaN
19705,24.64,20.0005,0.00434788,114.163,0.00108697,28.5407,NaN
19976.6,24.6581,20,0.00443548,115.356,0.00110887,28.8389,NaN
20237,24.6661,20.0001,0.00452118,116.522,0.0011303,29.1304,NaN
20482.9,24.6731,19.9993,0.00460233,117.643,0.00115058,29.4109,NaN
20687,24.6644,19.9992,0.00466963,118.59,0.00116741,29.6475,NaN
20911.7,24.7123,20.0001,0.0047445,119.648,0.00118613,29.9119,NaN
21185,24.6888,19.9997,0.00483578,120.956,0.00120894,30.2391,NaN
21429.8,24.692,19.9999,0.00491797,122.15,0.00122949,30.5376,NaN
21695,24.6557,19.9985,0.00500792,123.467,0.00125198,30.8667,NaN
21903.1,24.6832,19.9997,0.00507853,124.516,0.00126963,31.1291,NaN
22121,24.6772,20.0001,0.00515224,125.631,0.00128806,31.4077,NaN
22369.6,24.7017,19.9998,0.00523701,126.922,0.00130925,31.7305,NaN
22641.5,24.6557,19.9999,0.00533018,128.359,0.00133255,32.0897,NaN
22814.5,24.6928,20.0003,0.00538972,129.286,0.00134743,32.3215,NaN
23035.8,24.6565,19.9998,0.00546604,130.487,0.00136651,32.6218,NaN
23256.1,24.7181,19.9997,0.00554108,131.7,0.00138527,32.9249,NaN
23461.3,24.6988,20.0002,0.00561163,132.843,0.00140291,33.2109,NaN
23670.5,24.6968,19.9996,0.00568356,134.025,0.00142089,33.5063,NaN
23918.9,24.6782,19.9999,0.00576893,135.448,0.00144223,33.8619,NaN
24164.5,24.6966,20.0001,0.00585359,136.875,0.0014634,34.2187,NaN
24386,24.7079,20.0001,0.00592924,138.18,0.00148231,34.5449,NaN
24682.5,24.7423,19.9997,0.00603101,139.953,0.00150775,34.9882,NaN
24949.2,24.7044,19.9997,0.006122,141.574,0.0015305,35.3934,NaN
25182,24.6967,19.9994,0.00620119,143.008,0.0015503,35.752,NaN
25487,24.693,19.9996,0.00630494,144.915,0.00157624,36.2288,NaN
25685.9,24.734,19.9997,0.00637171,146.176,0.00159293,36.544,NaN
25898.2,24.7222,19.9998,0.00644325,147.536,0.00161081,36.8841,NaN
26127.9,24.7094,19.9997,0.00652015,149.025,0.00163004,37.2562,NaN
26402.2,24.7023,19.9996,0.00661097,150.826,0.00165274,37.7065,NaN
26612.4,24.6859,20.0004,0.00667961,152.223,0.0016699,38.0557,NaN
26862.7,24.7319,19.9998,0.0067618,153.905,0.00169045,38.4763,NaN
27081.8,24.71,20,0.00683264,155.394,0.00170816,38.8485,NaN
27317.1,24.714,20.0001,0.00690786,157.011,0.00172696,39.2528,NaN
27525.4,24.7545,20.0001,0.00697448,158.457,0.00174362,39.6141,NaN
27781,24.7444,20,0.00705562,160.25,0.00176391,40.0624,NaN
28035.4,24.7366,20.0002,0.00713472,162.055,0.00178368,40.5136,NaN
28237.8,24.715,19.9992,0.00719719,163.505,0.0017993,40.8762,NaN
28461,24.6936,19.9993,0.00726502,165.12,0.00181625,41.2799,NaN
28673.8,24.7666,19.9997,0.00732884,166.672,0.00183221,41.668,NaN
28962.4,24.7003,19.9997,0.00741531,168.8,0.00185383,42.2,NaN
29153.8,24.7853,19.9995,0.00747093,170.225,0.00186773,42.5562,NaN
29353.2,24.7652,20.0008,0.0075286,171.72,0.00188215,42.93,NaN
29569.2,24.6986,19.9996,0.00758962,173.353,0.00189741,43.3382,NaN
29794.3,24.7004,19.9997,0.00765326,175.068,0.00191332,43.7671,NaN
29980.3,24.7163,19.9998,0.00770503,176.497,0.00192626,44.1242,NaN
30194.7,24.6955,19.9999,0.00776368,178.155,0.00194092,44.5388,NaN
30472,24.6331,19.9996,0.00783827,180.318,0.00195957,45.0796,NaN
30657.6,24.6521,19.9997,0.00788714,181.777,0.00197178,45.4443,NaN
30877.2,24.6236,19.9995,0.00794431,183.515,0.00198608,45.8788,NaN
31131.3,24.5923,19.9996,0.00800876,185.543,0.00200219,46.3858,NaN
31375.5,24.6699,20,0.00806931,187.506,0.00201733,46.8765,NaN
31645.4,24.6059,19.9995,0.0081347,189.693,0.00203368,47.4232,NaN
31907.4,24.5735,19.9997,0.00819587,191.832,0.00204897,47.9579,NaN
32254.9,24.6179,19.9995,0.00827467,194.694,0.00206867,48.6735,NaN
32468.2,24.5639,20.0001,0.00832156,196.464,0.00208039,49.1159,NaN
32730.3,24.5644,19.9996,0.00837782,198.653,0.00209446,49.6631,NaN
32950.6,24.5374,19.9998,0.008423,200.503,0.00210575,50.1258,NaN
33163.4,24.5487,19.9995,0.00846631,202.3,0.00211658,50.5749,NaN
33408.8,24.5851,19.9999,0.00851507,204.383,0.00212877,51.0959,NaN
33598.9,24.5439,19.9999,0.00855109,206.006,0.00213777,51.5015,NaN
33832.4,24.539,19.9999,0.0085949,208.008,0.00214873,52.0019,NaN
34037.3,24.548,19.9997,0.00863175,209.773,0.00215794,52.4432,NaN
34265.3,24.5379,19.9997,0.00867169,211.745,0.00216792,52.9362,NaN
34503.1,24.5285,19.9998,0.00871036,213.812,0.00217759,53.453,NaN
34743.3,24.4844,19.9996,0.00875001,215.909,0.0021875,53.9772,NaN
35025.5,24.4699,19.9998,0.00879436,218.385,0.00219859,54.5962,NaN
35261.2,24.5688,19.9998,0.00882926,220.461,0.00220731,55.1153,NaN
35467.2,24.5044,20,0.00885932,222.284,0.00221483,55.5709,NaN
35684.5,24.4784,19.9995,0.0088892,224.212,0.0022223,56.0531,NaN
35925.6,24.4726,20,0.00892113,226.359,0.00223028,56.5898,NaN
36134.8,24.4799,20,0.00894766,228.228,0.00223691,57.0571,NaN
36362,24.4822,19.9995,0.00897528,230.264,0.00224382,57.566,NaN
36600.9,24.5046,19.9995,0.0090032,232.412,0.0022508,58.103,NaN
36834.5,24.4742,19.9999,0.00902918,234.518,0.0022573,58.6294,NaN
37104.4,24.4921,19.9996,0.00905722,236.959,0.0022643,59.2398,NaN
37388.1,24.4609,19.9998,0.00908467,239.532,0.00227117,59.8831,NaN
37701.5,24.4605,20.0001,0.00911272,242.384,0.00227818,60.596,NaN
37950.4,24.4536,19.9994,0.00913415,244.655,0.00228354,61.1637,NaN
38241.5,24.4591,20,0.0091567,247.317,0.00228917,61.8293,NaN
38470.9,24.4412,19.9995,0.00917292,249.419,0.00229323,62.3548,NaN
38754.6,24.4593,20,0.00919178,252.024,0.00229794,63.0061,NaN
39017.7,24.4404,19.9993,0.00920743,254.445,0.00230186,63.6112,NaN
39222.9,24.4601,19.9999,0.00921904,256.336,0.00230476,64.0839,NaN
39537.6,24.4445,19.9998,0.00923404,259.239,0.00230851,64.8097,NaN
39802.3,24.4597,19.9999,0.00924703,261.685,0.00231176,65.4211,NaN
40077.6,24.4432,19.9994,0.00925712,264.232,0.00231428,66.0581,NaN
40361.6,24.4453,20.0003,0.00926614,266.862,0.00231654,66.7156,NaN
40537.9,24.4344,19.9996,0.00927166,268.496,0.00231791,67.1241,NaN
40837.9,24.4393,19.9995,0.00927833,271.279,0.00231958,67.8197,NaN
41080.3,24.3957,19.9997,0.00928238,273.529,0.00232059,68.3822,NaN
41258,24.3947,19.9998,0.00928426,275.178,0.00232107,68.7946,NaN
41468.6,24.4177,19.9998,0.0092859,277.134,0.00232148,69.2835,NaN
41709.9,24.443,19.9995,0.00928768,279.375,0.00232192,69.8437,NaN
41914.5,24.3901,19.9999,0.00928848,281.275,0.00232212,70.3188,NaN
42137.2,24.4015,19.9998,0.00928826,283.344,0.00232207,70.836,NaN
42337.5,24.4305,19.9997,0.00928653,285.204,0.00232163,71.301,NaN
42551.2,24.4232,19.9999,0.00928471,287.188,0.00232118,71.797,NaN
42797.4,24.4004,19.9999,0.00928224,289.474,0.00232056,72.3684,NaN
43111,24.3571,20.0001,0.00927767,292.384,0.00231942,73.0959,NaN
43320.5,24.392,19.9992,0.00927369,294.328,0.00231842,73.5819,NaN
43529.3,24.4004,19.9998,0.00926935,296.263,0.00231734,74.0658,NaN
43816.9,24.4057,19.9997,0.0092627,298.928,0.00231568,74.7319,NaN
44075.9,24.3697,20.0001,0.00925634,301.326,0.00231408,75.3316,NaN
44345.6,24.3634,19.9999,0.00924848,303.822,0.00231212,75.9555,NaN
44618.3,24.3115,19.9999,0.00924048,306.343,0.00231012,76.5856,NaN
44837.1,24.3897,19.9996,0.0092338,308.364,0.00230845,77.0909,NaN
45078.3,24.3778,20.0001,0.00922623,310.591,0.00230656,77.6476,NaN
45297.4,24.3829,19.9996,0.00921883,312.61,0.00230471,78.1526,NaN
45560.6,24.3647,19.9999,0.0092098,315.036,0.00230245,78.7589,NaN
45756.8,24.3516,20,0.00920307,316.842,0.00230077,79.2106,NaN
45971.5,24.3677,19.9995,0.00919625,318.817,0.00229906,79.7042,NaN
46169.5,24.3458,20.0002,0.00918981,320.638,0.00229745,80.1594,NaN
46396.8,24.3257,19.9994,0.00918245,322.725,0.00229561,80.6813,NaN
46692.3,24.3172,20,0.00917388,325.437,0.00229347,81.3594,NaN
46860.4,24.3388,19.9994,0.00916937,326.98,0.00229234,81.7449,NaN
47051.8,24.3651,19.9994,0.00916503,328.734,0.00229126,82.1836,NaN
47294.1,24.2938,20,0.00916018,330.954,0.00229004,82.7385,NaN
47501.2,24.3309,19.9994,0.00915706,332.851,0.00228926,83.2127,NaN
47772.4,24.3206,19.9998,0.00915496,335.334,0.00228874,83.8335,NaN
47994.3,24.3266,19.9992,0.00915392,337.365,0.00228848,84.3412,NaN
48261.1,24.3432,19.9999,0.00915337,339.808,0.00228834,84.9519,NaN
48528.3,24.3049,19.9995,0.00915497,342.254,0.00228874,85.5635,NaN
48764.7,24.3059,19.9999,0.00915689,344.418,0.00228922,86.1044,NaN
49018.9,24.3054,19.9995,0.00915944,346.746,0.00228986,86.6864,NaN
49204.1,24.331,20,0.00916184,348.443,0.00229046,87.1107,NaN
49366.9,24.3151,19.9997,0.00916356,349.934,0.00229089,87.4836,NaN
49618.8,24.3266,19.9997,0.00916662,352.243,0.00229165,88.0608,NaN
49856,24.3091,19.9999,0.00916891,354.417,0.00229223,88.6043,NaN
50150.4,24.3215,19.9993,0.00917184,357.117,0.00229296,89.2793,NaN
50347.1,24.3565,19.9997,0.00917321,358.922,0.0022933,89.7305,NaN
50623,24.327,19.9995,0.00917447,361.453,0.00229362,90.3632,NaN
50904,24.2868,19.9999,0.00917464,364.031,0.00229366,91.0077,NaN
51131.9,24.336,19.9995,0.0091734,366.121,0.00229335,91.5303,NaN
51323.8,24.2927,19.9995,0.00917138,367.882,0.00229285,91.9704,NaN
51527.6,24.2761,19.9999,0.00916801,369.751,0.002292,92.4377,NaN
51776.2,24.2948,20,0.00916294,372.029,0.00229073,93.0072,NaN
52027.9,24.3371,19.9996,0.00915687,374.335,0.00228922,93.5837,NaN
52260.3,24.3023,19.9996,0.00915026,376.462,0.00228756,94.1155,NaN
52514.4,24.3007,19.9997,0.00914144,378.786,0.00228536,94.6965,NaN
52859.5,24.292,20.0004,0.00912869,381.939,0.00228217,95.4847,NaN
53137,24.2875,19.9998,0.00911654,384.47,0.00227914,96.1176,NaN
53398.1,24.3026,20,0.00910472,386.849,0.00227618,96.7122,NaN
53629.4,24.2968,20.0001,0.00909382,388.954,0.00227346,97.2384,NaN
53864.6,24.2938,19.9992,0.00908163,391.091,0.00227041,97.7728,NaN
54137.6,24.2619,20.0004,0.00906614,393.568,0.00226654,98.392,NaN
54337.9,24.2957,20,0.00905504,395.383,0.00226376,98.8456,NaN
54555.2,24.2698,20.0001,0.00904267,397.349,0.00226067,99.3374,NaN
54793.6,24.2745,20,0.00902725,399.503,0.00225681,99.8757,NaN
55062.2,24.277,19.9997,0.00900931,401.926,0.00225233,100.481,NaN
55326.4,24.2947,19.9995,0.00899089,404.304,0.00224772,101.076,NaN
55515.4,24.2933,20.0003,0.00897716,406.001,0.00224429,101.5,NaN
55747.7,24.3067,20.0001,0.00895956,408.084,0.00223989,102.021,NaN
55938.7,24.2959,19.9993,0.0089449,409.795,0.00223622,102.449,NaN
56212.7,24.2493,19.9994,0.00892264,412.242,0.00223066,103.061,NaN
56434.3,24.3003,19.9998,0.00890352,414.218,0.00222588,103.554,NaN
56740.5,24.2307,20,0.00887653,416.94,0.00221913,104.235,NaN
56966.4,24.2948,19.9998,0.00885571,418.942,0.00221393,104.736,NaN
57186.5,24.27,19.9999,0.00883551,420.89,0.00220888,105.222,NaN
57409.3,24.3071,20,0.00881398,422.856,0.0022035,105.714,NaN
57661.8,24.231,19.9993,0.00878885,425.079,0.00219721,106.27,NaN
57859.8,24.2533,19.9994,0.00876858,426.816,0.00219214,106.704,NaN
58086.4,24.2697,19.9995,0.00874515,428.801,0.00218629,107.2,NaN
58346.1,24.2547,20.0002,0.00871741,431.069,0.00217935,107.767,NaN
58570.5,24.2412,19.9995,0.00869415,433.021,0.00217354,108.255,NaN
58767.9,24.2487,20,0.00867213,434.736,0.00216803,108.684,NaN
58982.6,24.2506,19.9996,0.00864827,436.595,0.00216207,109.149,NaN
59244.7,24.2569,19.9998,0.00861869,438.858,0.00215467,109.715,NaN
59451.4,24.2249,20.0001,0.00859483,440.637,0.00214871,110.159,NaN
59671.6,24.2735,19.9997,0.00856895,442.527,0.00214224,110.632,NaN
59920.1,24.2642,19.9999,0.00854031,444.652,0.00213508,111.163,NaN
60159.1,24.227,19.9997,0.00851169,446.69,0.00212792,111.672,NaN
60412,24.2319,20.0001,0.00848148,448.839,0.00212037,112.21,NaN
60656.4,24.2632,20.0002,0.00845219,450.909,0.00211305,112.727,NaN
60881.5,24.2314,20.0001,0.00842433,452.808,0.00210608,113.202,NaN
61101,24.2386,19.9998,0.00839736,454.654,0.00209934,113.664,NaN
61360.9,24.2283,19.9997,0.00836544,456.832,0.00209136,114.208,NaN
61609.3,24.2261,20,0.0083362,458.907,0.00208405,114.727,NaN
61868,24.2425,19.9996,0.00830273,461.059,0.00207568,115.265,NaN
62167.4,24.2413,20.0002,0.00826464,463.539,0.00206616,115.885,NaN
62402.4,24.253,19.9999,0.00823535,465.478,0.00205884,116.369,NaN
62780.6,24.2447,19.9998,0.00818765,468.584,0.00204691,117.146,NaN
62971.7,24.2456,19.9995,0.00816273,470.146,0.00204068,117.536,NaN
63250.2,24.2462,20.0002,0.00812685,472.414,0.00203171,118.103,NaN
63558.6,24.2361,19.9994,0.00808744,474.914,0.00202186,118.729,NaN
63796.7,24.2572,20.0001,0.00805752,476.836,0.00201438,119.209,NaN
64026.8,24.2159,19.9998,0.0080281,478.687,0.00200702,119.672,NaN
64195.7,24.2388,20.0001,0.0080066,480.041,0.00200165,120.01,NaN
64387.8,24.2312,20.0003,0.00798234,481.577,0.00199559,120.394,NaN
64599.6,24.2385,19.9997,0.00795485,483.264,0.00198871,120.816,NaN
64846.2,24.2376,19.9996,0.00792331,485.223,0.00198083,121.306,NaN
65102.3,24.2348,20.0001,0.00789056,487.247,0.00197264,121.812,NaN
65311.6,24.2573,19.9999,0.00786393,488.896,0.00196598,122.224,NaN
65479.3,24.2017,19.9998,0.00784258,490.213,0.00196065,122.553,NaN
65683.9,24.2147,19.9995,0.00781618,491.815,0.00195404,122.954,NaN
65902.2,24.2213,19.9997,0.00778933,493.519,0.00194733,123.38,NaN
66121.7,24.2188,19.9997,0.00776211,495.225,0.00194053,123.806,NaN
66357.6,24.2244,19.9996,0.00773233,497.053,0.00193308,124.263,NaN
66595.8,24.216,20,0.00770206,498.891,0.00192552,124.723,NaN
66864.5,24.2112,19.9996,0.00766866,500.956,0.00191716,125.239,NaN
67132,24.2274,20,0.00763718,503.003,0.0019093,125.751,NaN
67421,24.2121,19.9995,0.00760195,505.205,0.00190049,126.301,NaN
67656.3,24.199,19.9992,0.00757288,506.99,0.00189322,126.748,NaN
67935.7,24.2069,19.9993,0.00754037,509.102,0.00188509,127.275,NaN
68182.7,24.2378,19.9994,0.00751012,510.96,0.00187753,127.74,NaN
68381,24.1815,19.9996,0.00748677,512.447,0.00187169,128.112,NaN
68626.5,24.1998,19.9993,0.00745759,514.282,0.0018644,128.57,NaN
68913.9,24.163,19.9999,0.00742352,516.42,0.00185588,129.105,NaN
69159.7,24.155,19.9995,0.00739454,518.242,0.00184864,129.56,NaN
69368,24.1969,20.0001,0.00736964,519.779,0.00184241,129.945,NaN
69644.3,24.1824,19.9997,0.00733729,521.811,0.00183432,130.453,NaN
69816.5,24.1766,19.9998,0.00731765,523.073,0.00182941,130.768,NaN
70081.6,24.1794,19.9999,0.00728691,525.009,0.00182173,131.252,NaN
70368.9,24.1608,19.9997,0.00725393,527.097,0.00181348,131.774,NaN
70610.6,24.1463,19.9997,0.0072268,528.847,0.0018067,132.212,NaN
70789.9,24.1801,19.9996,0.00720634,530.141,0.00180159,132.535,NaN
71056.6,24.1911,20.0001,0.00717664,532.059,0.00179416,133.015,NaN
71268.9,24.169,19.9999,0.00715275,533.58,0.00178819,133.395,NaN
71531.3,24.1546,19.9996,0.00712371,535.453,0.00178093,133.863,NaN
71762.9,24.1664,19.9998,0.0070985,537.1,0.00177462,134.275,NaN
71999.6,24.1774,19.9996,0.00707339,538.778,0.00176835,134.694,NaN
72225.1,24.1697,20,0.00704894,540.37,0.00176223,135.093,NaN
72468.7,24.1556,19.9998,0.00702281,542.084,0.0017557,135.521,NaN
72669.6,24.1528,19.9998,0.00700202,543.492,0.00175051,135.873,NaN
72948.8,24.1531,20.0001,0.00697146,545.443,0.00174287,136.361,NaN
73186.9,24.1489,19.9995,0.00694678,547.1,0.0017367,136.775,NaN
73403,24.132,20,0.00692442,548.599,0.00173111,137.15,NaN
73648.5,24.1524,20,0.00689874,550.296,0.00172469,137.574,NaN
73876.9,24.1485,19.9995,0.00687509,551.869,0.00171877,137.967,NaN
74136.6,24.1447,20,0.00684847,553.651,0.00171212,138.413,NaN
74408.9,24.1418,20,0.00682121,555.512,0.0017053,138.878,NaN
74672.8,24.1618,20.0007,0.0067943,557.308,0.00169857,139.327,NaN
74925,24.1452,19.9996,0.00676909,559.019,0.00169227,139.755,NaN
75095.2,24.1132,19.9996,0.0067523,560.169,0.00168807,140.042,NaN
75299.8,24.11,19.9996,0.00673168,561.548,0.00168292,140.387,NaN
75527.7,24.128,19.9997,0.00670997,563.08,0.00167749,140.77,NaN
75760,24.1377,20,0.00668686,564.636,0.00167172,141.159,NaN
75986.1,24.1374,19.9997,0.00666536,566.146,0.00166634,141.537,NaN
76182,24.136,19.9993,0.0066464,567.45,0.0016616,141.863,NaN
76388.1,24.1473,19.9998,0.00662582,568.817,0.00165645,142.204,NaN
76634.5,24.1403,19.9999,0.00660231,570.447,0.00165058,142.612,NaN
76836.8,24.1262,19.9998,0.00658301,571.781,0.00164575,142.945,NaN
77057.4,24.1199,19.9998,0.00656165,573.231,0.00164041,143.308,NaN
77302.9,24.1201,19.9996,0.00653903,574.839,0.00163476,143.71,NaN
77518.2,24.1452,19.9999,0.00651841,576.244,0.0016296,144.061,NaN
77857.6,24.1182,19.9998,0.00648641,578.452,0.0016216,144.613,NaN
78143.4,24.1103,20.0001,0.00645981,580.302,0.00161495,145.075,NaN
78375.1,24.1162,19.9997,0.00643797,581.796,0.00160949,145.449,NaN
78595.4,24.1185,20.0002,0.00641797,583.212,0.00160449,145.803,NaN
78888.9,24.1295,19.9996,0.00639291,585.092,0.00159823,146.273,NaN
79170.5,24.1245,20,0.00636614,586.888,0.00159153,146.722,NaN
79425.5,24.1005,19.9997,0.00634268,588.508,0.00158567,147.127,NaN
79643.8,24.1162,19.9999,0.006323,589.891,0.00158075,147.473,NaN
79899.2,24.1195,20.0004,0.00630001,591.503,0.001575,147.876,NaN
80115.2,24.1064,19.9993,0.00627999,592.862,0.00157,148.215,NaN
80284.8,24.1325,19.9999,0.00626525,593.926,0.00156631,148.481,NaN
80550.7,24.1196,19.9997,0.00624132,595.588,0.00156033,148.897,NaN
80767.2,24.119,20.0001,0.00622207,596.937,0.00155552,149.234,NaN
80981.1,24.1371,20.0004,0.00620274,598.266,0.00155069,149.567,NaN
81168.7,24.1363,19.9997,0.00618619,599.428,0.00154655,149.857,NaN
81420.7,24.0918,20,0.00616414,600.984,0.00154104,150.246,NaN
81639.8,24.1244,20,0.006145,602.333,0.00153625,150.583,NaN
81910.3,24.1391,20.0001,0.00612144,603.992,0.00153036,150.998,NaN
82142.2,24.1145,19.9997,0.00610093,605.409,0.00152523,151.352,NaN
82379.9,24.0983,19.9997,0.00608098,606.857,0.00152025,151.714,NaN
82642.9,24.1206,19.9998,0.00605803,608.454,0.00151451,152.113,NaN
82993.5,24.1324,19.9996,0.00602813,610.572,0.00150703,152.643,NaN
83184.1,24.0958,20.0002,0.00601189,611.72,0.00150297,152.93,NaN
83443.4,24.1189,20.0003,0.00599003,613.275,0.00149751,153.319,NaN
83733.5,24.1472,19.9997,0.00596527,615.009,0.00149132,153.752,NaN
83982.8,24.111,20,0.00594439,616.494,0.0014861,154.124,NaN
84238.4,24.1414,19.9996,0.00592344,618.011,0.00148086,154.503,NaN
84446,24.1294,19.9998,0.00590607,619.239,0.00147652,154.81,NaN
84722.4,24.176,19.9997,0.00588377,620.868,0.00147094,155.217,NaN
84933.8,24.1495,19.9999,0.00586614,622.11,0.00146654,155.528,NaN
85165.2,24.1288,19.9998,0.00584716,623.465,0.00146179,155.866,NaN
85395.7,24.1049,19.9998,0.00582866,624.811,0.00145716,156.203,NaN
85656.1,24.1489,20,0.00580738,626.326,0.00145185,156.581,NaN
85927.4,24.1378,19.9997,0.00578561,627.899,0.0014464,156.975,NaN
86169.1,24.1217,19.9997,0.00576578,629.294,0.00144144,157.324,NaN
86410.5,24.1252,19.9997,0.00574676,630.684,0.00143669,157.671,NaN
86602.1,24.1108,19.9996,0.00573145,631.783,0.00143286,157.946,NaN
86802.8,24.1354,19.9996,0.0057156,632.932,0.0014289,158.233,NaN
87016.1,24.1619,20.0002,0.00569862,634.15,0.00142465,158.537,NaN
87194.8,24.1428,20.0002,0.005685,635.167,0.00142125,158.792,NaN
87430.7,24.1383,20.0001,0.00566626,636.506,0.00141657,159.126,NaN
87678.2,24.0958,19.9999,0.00564687,637.905,0.00141172,159.476,NaN
87911.1,24.1385,19.9998,0.00563001,639.219,0.0014075,159.805,NaN
88177.5,24.1467,19.9999,0.0056092,640.716,0.0014023,160.179,NaN
88403.9,24.1541,20,0.00559248,641.984,0.00139812,160.496,NaN
88639.5,24.1827,19.9997,0.00557456,643.3,0.00139364,160.825,NaN
88884.3,24.184,19.9997,0.00555548,644.662,0.00138887,161.165,NaN
89165.7,24.1112,19.9998,0.00553453,646.222,0.00138363,161.556,NaN
89384.1,24.1591,19.9998,0.00551844,647.429,0.00137961,161.857,NaN
89628.1,24.1636,19.9997,0.00550025,648.773,0.00137506,162.193,NaN
89831.4,24.1823,20.0001,0.0054854,649.89,0.00137135,162.473,NaN
90048.5,24.1293,20.0002,0.00546992,651.079,0.00136748,162.77,NaN
90301.4,24.1609,19.9997,0.00545138,652.46,0.00136284,163.115,NaN
90514.3,24.1607,19.9998,0.0054358,653.619,0.00135895,163.405,NaN
90724.5,24.1501,19.9997,0.00542069,654.76,0.00135517,163.69,NaN
90980.7,24.1585,19.9997,0.00540178,656.147,0.00135045,164.037,NaN
91227.7,24.2142,20.0002,0.00538459,657.479,0.00134615,164.37,NaN
91483.4,24.1312,19.9996,0.00536634,658.853,0.00134159,164.713,NaN
91690,24.1792,20,0.00535174,659.96,0.00133794,164.99,NaN
91907.6,24.1876,19.9998,0.00533619,661.123,0.00133405,165.281,NaN
92129.5,24.1912,19.9997,0.00532085,662.305,0.00133021,165.576,NaN
92422.5,24.1702,19.9997,0.00530312,663.862,0.00132578,165.965,NaN
92673.2,24.1777,20,0.00528392,665.189,0.00132098,166.297,NaN
92898.8,24.1984,19.9997,0.00526867,666.379,0.00131717,166.595,NaN
93152.5,24.1705,19.9993,0.00525134,667.714,0.00131283,166.928,NaN
93478.3,24.1705,19.9997,0.00522962,669.421,0.00130741,167.355,NaN
93722.7,24.1802,19.9993,0.00521365,670.697,0.00130341,167.674,NaN
94022.8,24.1878,19.9995,0.00519328,672.259,0.00129832,168.065,NaN
94218.2,24.1873,19.9999,0.00518046,673.272,0.00129511,168.318,NaN
94460.9,24.169,19.9997,0.00516437,674.528,0.00129109,168.632,NaN
94779.9,24.2289,19.9998,0.00514383,676.172,0.00128596,169.043,NaN
94983.4,24.1917,20,0.00513058,677.218,0.00128265,169.304,NaN
95262.3,24.1966,20.0001,0.00511291,678.646,0.00127823,169.661,NaN
95467.6,24.1489,19.9996,0.00510012,679.694,0.00127503,169.924,NaN
95698.6,24.2149,19.9994,0.0050854,680.871,0.00127135,170.218,NaN
95911.6,24.1845,20.0001,0.00507201,681.952,0.001268,170.488,NaN
96132.4,24.1926,19.9992,0.00505804,683.07,0.00126451,170.768,NaN
96335,24.1401,19.9998,0.00504516,684.094,0.00126129,171.024,NaN
96537.5,24.1958,19.9999,0.00503244,685.114,0.00125811,171.279,NaN
96793.2,24.2338,20,0.00501701,686.399,0.00125425,171.6,NaN
96991.5,24.2224,19.9998,0.00500479,687.393,0.0012512,171.848,NaN
97252.5,24.2113,19.9997,0.00498896,688.697,0.00124724,172.174,NaN
97531.3,24.197,19.9998,0.00497279,690.086,0.0012432,172.521,NaN
97766.7,24.1959,19.9995,0.00495859,691.255,0.00123965,172.814,NaN
98096.5,24.1728,20.0002,0.00493892,692.887,0.00123473,173.222,NaN
98350.9,24.174,19.9999,0.00492431,694.142,0.00123108,173.535,NaN
98594.5,24.1637,19.9996,0.00491025,695.34,0.00122756,173.835,NaN
98898.4,24.181,19.9996,0.00489259,696.829,0.00122315,174.207,NaN
99195.6,24.2236,19.9997,0.00487548,698.28,0.00121887,174.57,NaN
99437.1,24.1885,19.9994,0.00486156,699.456,0.00121539,174.864,NaN
99657.2,24.1958,19.9997,0.00484866,700.525,0.00121217,175.131,NaN
99890.1,24.1605,19.9996,0.00483545,701.652,0.00120886,175.413,NaN
100159,24.204,19.9997,0.00482038,702.951,0.0012051,175.738,NaN
100371,24.1745,19.9996,0.00480848,703.971,0.00120212,175.993,NaN
100629,24.1799,19.9996,0.00479399,705.212,0.0011985,176.303,NaN
100904,24.1502,19.9998,0.00477883,706.528,0.00119471,176.632,NaN
101160,24.1608,20,0.00476477,707.749,0.00119119,176.937,NaN
101399,24.1795,19.9997,0.00475167,708.885,0.00118792,177.221,NaN
101646,24.1802,19.9996,0.00473835,710.056,0.00118459,177.514,NaN
101892,24.1428,20.0001,0.00472485,711.219,0.00118121,177.805,NaN
102095,24.1829,20.0001,0.00471358,712.181,0.0011784,178.045,NaN
102398,24.1805,19.9997,0.00469742,713.606,0.00117436,178.401,NaN
102624,24.2077,19.9999,0.00468533,714.666,0.00117133,178.666,NaN
102850,24.2132,19.9996,0.00467319,715.721,0.0011683,178.93,NaN
103109,24.1537,20.0007,0.00465916,716.933,0.00116479,179.233,NaN
103433,24.1301,20.0003,0.0046417,718.436,0.00116042,179.609,NaN
103742,24.1789,20,0.00462562,719.87,0.0011564,179.967,NaN
104018,24.2109,19.9998,0.0046112,721.146,0.0011528,180.287,NaN
104206,24.2042,20.0002,0.00460139,722.011,0.00115035,180.503,NaN
104501,24.2162,19.9998,0.00458614,723.367,0.00114654,180.842,NaN
104734,24.244,19.9997,0.00457381,724.433,0.00114345,181.108,NaN
104984,24.3375,19.9997,0.00456089,725.573,0.00114022,181.393,NaN
105279,24.2821,20,0.00454532,726.92,0.00113633,181.73,NaN
105547,24.3241,20,0.00453156,728.136,0.00113289,182.034,NaN
105828,24.3322,20.0003,0.00451678,729.405,0.0011292,182.351,NaN
106056,24.344,19.9999,0.00450479,730.436,0.0011262,182.609,NaN
106291,24.3074,20,0.00449295,731.491,0.00112324,182.873,NaN
106539,24.3109,19.9998,0.00448002,732.604,0.00112,183.151,NaN
106807,24.2916,20,0.00446596,733.804,0.00111649,183.451,NaN
107100,24.2725,20,0.00445074,735.108,0.00111268,183.777,NaN
107349,24.2433,19.9997,0.00443749,736.216,0.00110937,184.054,NaN
107642,24.2767,19.9993,0.0044218,737.513,0.00110545,184.378,NaN
107861,24.288,19.9994,0.00441066,738.482,0.00110266,184.62,NaN
108109,24.2209,19.9995,0.004398,739.572,0.0010995,184.893,NaN
108397,24.236,19.9999,0.00438256,740.838,0.00109564,185.21,NaN
108708,24.2406,20.0001,0.00436611,742.197,0.00109153,185.549,NaN
108969,24.2616,19.9994,0.00435222,743.335,0.00108806,185.834,NaN
109188,24.2441,19.9995,0.0043408,744.287,0.0010852,186.072,NaN
109414,24.2459,20.0001,0.0043289,745.265,0.00108222,186.316,NaN
109762,24.2137,20,0.0043099,746.768,0.00107748,186.692,NaN
110052,24.2529,19.9999,0.00429501,748.018,0.00107375,187.004,NaN
110277,24.2714,19.9999,0.00428384,748.982,0.00107096,187.246,NaN
110488,24.2432,19.9998,0.00427291,749.884,0.00106823,187.471,NaN
110846,24.2201,20,0.00425393,751.413,0.00106348,187.853,NaN
111159,24.2488,20.0001,0.00423745,752.742,0.00105936,188.185,NaN
111413,24.2384,19.9999,0.00422416,753.814,0.00105604,188.453,NaN
111798,24.2491,19.9999,0.00420366,755.438,0.00105092,188.86,NaN
112012,24.2637,19.9996,0.0041926,756.338,0.00104815,189.084,NaN
112254,24.2686,19.9998,0.00417969,757.35,0.00104492,189.338,NaN
112547,24.2797,19.9996,0.00416383,758.572,0.00104096,189.643,NaN
112815,24.2957,19.9998,0.00414953,759.684,0.00103738,189.921,NaN
113043,24.263,19.9999,0.00413715,760.63,0.00103429,190.158,NaN
113342,24.2763,20.0003,0.00412137,761.867,0.00103034,190.467,NaN
113701,24.2604,20.0004,0.00410233,763.343,0.00102558,190.836,NaN
113927,24.2867,19.9996,0.00409073,764.266,0.00102268,191.066,NaN
114177,24.2837,19.999,0.00407729,765.288,0.00101932,191.322,NaN
114345,24.2605,19.9992,0.0040684,765.972,0.0010171,191.493,NaN
114661,24.2326,19.9995,0.00405151,767.257,0.00101288,191.814,NaN
114901,24.2717,20,0.00403843,768.228,0.00100961,192.057,NaN
115150,24.2393,19.9999,0.00402481,769.23,0.0010062,192.308,NaN
115423,24.2346,19.9999,0.00400992,770.325,0.00100248,192.581,NaN
115641,24.2464,19.9999,0.00399829,771.2,0.000999573,192.8,NaN
115866,24.249,19.9998,0.00398769,772.1,0.000996923,193.025,NaN
116103,24.2586,19.9993,0.00397257,773.043,0.000993142,193.261,NaN
116369,24.216,19.9995,0.00395804,774.094,0.00098951,193.524,NaN
116652,24.2248,19.9995,0.00394268,775.213,0.000985669,193.803,NaN
116965,24.2553,20,0.00392523,776.444,0.000981308,194.111,NaN
117237,24.2203,19.9996,0.00391043,777.51,0.000977608,194.377,NaN
117493,24.1891,19.9999,0.0038966,778.51,0.000974149,194.628,NaN
117723,24.2048,19.9996,0.00388391,779.405,0.000970978,194.851,NaN
118008,24.199,19.9998,0.00386812,780.509,0.000967031,195.127,NaN
118180,24.2037,19.9998,0.00385823,781.176,0.000964557,195.294,NaN
118489,24.201,19.9995,0.0038408,782.365,0.000960201,195.591,NaN
118774,24.195,20,0.00382453,783.456,0.000956132,195.864,NaN
119011,24.1964,19.9996,0.00381146,784.36,0.000952865,196.09,NaN
119257,24.199,19.9998,0.00379771,785.295,0.000949427,196.324,NaN
119564,24.194,19.9995,0.00378034,786.459,0.000945084,196.615,NaN
119888,24.185,20,0.00376226,787.681,0.000940565,196.92,NaN
120184,24.1727,19.9997,0.00374606,788.792,0.000936516,197.198,NaN
120501,24.1764,19.9999,0.00372792,789.977,0.000931981,197.494,NaN
120819,24.1528,19.9995,0.00371016,791.161,0.00092754,197.79,NaN
121071,24.2161,20.001,0.00369598,792.095,0.000923995,198.024,NaN
121337,24.1686,20.0002,0.00368147,793.076,0.000920369,198.269,NaN
121553,24.1862,20,0.0036695,793.868,0.000917375,198.467,NaN
121795,24.1733,19.9997,0.00365609,794.756,0.000914024,198.689,NaN
122009,24.1852,19.9993,0.00364524,795.538,0.000911309,198.884,NaN
122325,24.1626,19.9998,0.00362906,796.685,0.000907266,199.171,NaN
122586,24.1368,19.9997,0.00361487,797.632,0.000903718,199.408,NaN
122900,24.1616,19.9995,0.00359853,798.765,0.000899634,199.691,NaN
123225,24.1683,19.9995,0.00358145,799.931,0.000895363,199.983,NaN
123472,24.1604,19.9999,0.0035684,800.813,0.0008921,200.203,NaN
123795,24.1467,19.9996,0.00355103,801.962,0.000887757,200.491,NaN
124081,24.1624,19.9994,0.00353589,802.977,0.000883973,200.744,NaN
124342,24.165,19.9999,0.00352256,803.896,0.000880641,200.974,NaN
124558,24.1503,20,0.00351175,804.659,0.000877938,201.165,NaN
124727,24.1523,20,0.00350365,805.249,0.000875912,201.312,NaN
125024,24.1366,19.9997,0.00348904,806.287,0.000872259,201.572,NaN
125277,24.1524,19.9995,0.0034755,807.171,0.000868876,201.793,NaN
125501,24.1377,20.0003,0.00346442,807.945,0.000866105,201.986,NaN
125722,24.1132,19.9999,0.00345395,808.713,0.000863487,202.178,NaN
125961,24.1923,20,0.00344305,809.534,0.000860762,202.384,NaN
126193,24.1498,19.9995,0.00343204,810.335,0.000858009,202.584,NaN
126437,24.1427,19.9997,0.00342083,811.171,0.000855207,202.793,NaN
126717,24.1291,20.0002,0.003408,812.126,0.000851999,203.032,NaN
126989,24.1533,19.9998,0.00339517,813.049,0.000848792,203.262,NaN
127232,24.147,20.0002,0.00338458,813.873,0.000846146,203.468,NaN
127524,24.1658,19.9981,0.00337133,814.861,0.000842832,203.715,NaN
127802,24.1399,20.0003,0.00335824,815.795,0.000839559,203.949,NaN
128043,24.1384,19.9999,0.00334748,816.605,0.00083687,204.151,NaN
128277,24.1573,20,0.00333705,817.387,0.000834263,204.347,NaN
128522,24.0907,19.9998,0.00332667,818.201,0.000831668,204.55,NaN
128715,24.1416,19.9999,0.00331853,818.842,0.000829632,204.711,NaN
129164,24.1353,19.9998,0.00329905,820.328,0.000824763,205.082,NaN
129440,24.1428,20,0.00328784,821.238,0.00082196,205.31,NaN
129671,24.1384,19.9994,0.00327854,821.997,0.000819634,205.499,NaN
129908,24.1388,20,0.00326855,822.773,0.000817138,205.693,NaN
130202,24.1176,19.9999,0.00325679,823.733,0.000814199,205.933,NaN
130373,24.1299,19.9998,0.00325025,824.287,0.000812561,206.072,NaN
130662,24.1001,19.9998,0.00323905,825.226,0.000809762,206.306,NaN
130916,24.1124,19.9991,0.00322904,826.049,0.00080726,206.512,NaN
131168,24.102,19.9996,0.00321926,826.86,0.000804815,206.715,NaN
131440,24.1198,19.9998,0.00320851,827.733,0.000802128,206.933,NaN
131711,24.1225,19.9998,0.00319847,828.601,0.000799617,207.15,NaN
131912,24.1055,19.9996,0.00319084,829.245,0.000797709,207.311,NaN
132184,24.126,20.0001,0.00318095,830.111,0.000795238,207.528,NaN
132495,24.116,19.9998,0.00316905,831.098,0.000792262,207.775,NaN
132764,24.0987,19.9999,0.0031593,831.949,0.000789824,207.987,NaN
132991,24.0791,19.9999,0.00315061,832.667,0.000787653,208.167,NaN
133237,24.1156,19.9996,0.00314175,833.441,0.000785437,208.36,NaN
133560,24.111,19.9997,0.00312989,834.452,0.000782471,208.613,NaN
133790,24.1171,19.9997,0.00312132,835.172,0.000780331,208.793,NaN
134050,24.1017,19.9997,0.0031124,835.981,0.000778101,208.995,NaN
134319,24.0816,20,0.00310309,836.818,0.000775772,209.205,NaN
134601,24.0545,19.9999,0.00309304,837.69,0.00077326,209.422,NaN
134874,24.0724,20.0001,0.00308389,838.536,0.000770972,209.634,NaN
135207,24.0782,20.0003,0.00307243,839.558,0.000768108,209.89,NaN
135502,24.1048,19.9998,0.00306279,840.464,0.000765697,210.116,NaN
135750,24.1119,19.9995,0.00305443,841.224,0.000763609,210.306,NaN
136017,24.0716,19.9996,0.00304496,842.036,0.000761239,210.509,NaN
136251,24.0859,19.9996,0.00303707,842.748,0.000759266,210.687,NaN
136478,24.1255,19.9998,0.00302978,843.438,0.000757444,210.86,NaN
136685,24.0626,19.9993,0.00302301,844.064,0.000755753,211.016,NaN
136877,24.1082,19.9996,0.00301649,844.644,0.000754121,211.161,NaN
137204,24.0854,19.9995,0.00300611,845.629,0.000751528,211.407,NaN
137461,24.0861,19.9997,0.00299797,846.399,0.000749493,211.6,NaN
137739,24.0534,19.9999,0.00298874,847.232,0.000747186,211.808,NaN
138049,24.0797,20,0.00297971,848.157,0.000744929,212.039,NaN
138264,24.0488,19.9999,0.00297276,848.797,0.00074319,212.199,NaN
138539,24.0764,19.9999,0.00296447,849.612,0.000741116,212.403,NaN
138813,24.103,19.9997,0.00295573,850.425,0.000738933,212.606,NaN
139094,24.0676,19.9997,0.00294684,851.252,0.00073671,212.813,NaN
139379,24.0542,19.9998,0.00293824,852.092,0.000734561,213.023,NaN
139591,24.0823,19.9992,0.00293213,852.713,0.000733033,213.178,NaN
139958,24.0286,19.9998,0.00292139,853.787,0.000730347,213.447,NaN
140229,24.047,19.9999,0.00291311,854.578,0.000728276,213.644,NaN
140455,24.0605,20.0002,0.0029067,855.238,0.000726676,213.81,NaN
140653,24.0802,19.9998,0.00290086,855.812,0.000725216,213.953,NaN
140936,24.0465,20,0.00289259,856.632,0.000723148,214.158,NaN
141133,24.063,19.9998,0.00288673,857.201,0.000721682,214.3,NaN
141327,24.0695,19.9997,0.00288115,857.76,0.000720288,214.44,NaN
141597,24.0203,19.9997,0.002874,858.537,0.000718501,214.634,NaN
141904,24.0686,19.9998,0.00286471,859.417,0.000716177,214.854,NaN
142177,24.0445,19.9998,0.00285692,860.198,0.000714229,215.05,NaN
142477,24.042,20.0001,0.0028486,861.056,0.00071215,215.264,NaN
142691,24.0371,19.9997,0.00284319,861.663,0.000710798,215.416,NaN
142999,24.0541,19.9997,0.00283455,862.539,0.000708637,215.635,NaN
143248,24.0522,19.9996,0.00282755,863.244,0.000706887,215.811,NaN
143585,24.0448,19.9998,0.0028186,864.195,0.000704651,216.049,NaN
143872,24.0637,19.9991,0.00281096,865.002,0.000702741,216.25,NaN
144091,24.05,20,0.00280472,865.618,0.000701181,216.405,NaN
144352,24.0398,19.9995,0.00279827,866.347,0.000699568,216.587,NaN
144590,24.036,19.9995,0.00279187,867.014,0.000697969,216.754,NaN
144872,24.0232,19.9995,0.00278511,867.801,0.000696278,216.95,NaN
145136,24.0509,20.0005,0.00277751,868.535,0.000694378,217.134,NaN
145475,24.0271,20.0002,0.00276901,869.475,0.000692251,217.369,NaN
145809,24.0317,19.9994,0.00276025,870.398,0.000690064,217.6,NaN
146033,24.0156,19.9993,0.00275505,871.017,0.000688762,217.754,NaN
146266,24.0211,19.9997,0.00274934,871.656,0.000687334,217.914,NaN
146477,24.0151,19.9997,0.00274492,872.236,0.000686231,218.059,NaN
146792,24.022,20.0001,0.002737,873.099,0.000684249,218.275,NaN
147067,24.0155,20.0003,0.00273005,873.852,0.000682512,218.463,NaN
147263,24.0066,19.9999,0.0027252,874.385,0.0006813,218.596,NaN
147531,23.9708,20.0001,0.00271888,875.115,0.00067972,218.779,NaN
147806,24.0026,20,0.00271223,875.864,0.000678058,218.966,NaN
148069,24.0296,19.9998,0.00270647,876.576,0.000676617,219.144,NaN
148323,24.0065,19.9997,0.00270081,877.261,0.000675202,219.315,NaN
148620,24.01,19.9997,0.00269422,878.063,0.000673556,219.516,NaN
148856,24.0114,19.9998,0.00268814,878.698,0.000672034,219.675,NaN
149124,23.9878,19.9996,0.00268272,879.417,0.000670679,219.854,NaN
149329,24.0219,19.9997,0.00267794,879.967,0.000669485,219.992,NaN
149636,24.0074,20.0002,0.0026712,880.789,0.000667801,220.197,NaN
149866,24.0042,19.9994,0.00266644,881.402,0.00066661,220.351,NaN
150054,24.0128,19.9996,0.00266223,881.902,0.000665558,220.476,NaN
150361,23.9895,20.0001,0.00265547,882.719,0.000663867,220.68,NaN
150674,24.0009,19.9999,0.00264932,883.549,0.000662331,220.887,NaN
150998,24.0056,19.9995,0.00264234,884.406,0.000660586,221.101,NaN
151246,24.0081,19.9999,0.00263705,885.06,0.000659262,221.265,NaN
151554,23.9869,19.9997,0.00263005,885.873,0.000657513,221.468,NaN
151926,23.9867,20.0001,0.00262211,886.849,0.000655527,221.712,NaN
152165,23.9994,20,0.00261753,887.474,0.000654382,221.869,NaN
152445,23.975,20.0002,0.00261231,888.207,0.000653078,222.052,NaN
152722,23.9843,19.9992,0.00260612,888.93,0.00065153,222.233,NaN
152982,24.0318,19.9997,0.00260108,889.609,0.00065027,222.402,NaN
153244,23.9831,19.9997,0.00259504,890.288,0.00064876,222.572,NaN
153504,23.9967,20.0001,0.00258992,890.962,0.000647479,222.74,NaN
153753,23.9736,19.9992,0.00258535,891.605,0.000646339,222.901,NaN
154018,23.9167,20,0.00257976,892.291,0.000644939,223.073,NaN
154250,23.9594,20,0.00257575,892.89,0.000643938,223.222,NaN
154591,23.9838,20,0.00256834,893.765,0.000642085,223.441,NaN
154896,23.949,19.9999,0.00256297,894.549,0.000640743,223.637,NaN
155224,23.9513,19.9998,0.0025568,895.388,0.000639199,223.847,NaN
155608,23.9489,19.9996,0.00254965,896.369,0.000637413,224.092,NaN
155924,23.9715,19.9996,0.00254366,897.174,0.000635914,224.293,NaN
156213,23.9448,19.9999,0.00253876,897.909,0.000634689,224.477,NaN
156511,23.9582,19.999,0.00253309,898.664,0.000633272,224.666,NaN
156761,23.9435,20.0001,0.00252832,899.296,0.00063208,224.824,NaN
156958,23.9586,20,0.00252501,899.795,0.000631251,224.949,NaN
157153,23.9698,19.9998,0.00252128,900.286,0.000630321,225.072,NaN
157419,23.9291,19.9998,0.00251632,900.957,0.000629081,225.239,NaN
157751,23.9402,19.9996,0.00251061,901.789,0.000627651,225.447,NaN
158008,23.9308,19.9995,0.00250608,902.436,0.00062652,225.609,NaN
158339,23.9374,19.9998,0.00250017,903.264,0.000625042,225.816,NaN
158530,23.9404,20,0.0024974,903.741,0.000624349,225.935,NaN
158780,23.9079,19.9996,0.00249313,904.364,0.000623283,226.091,NaN
159028,23.9187,19.9997,0.00248872,904.982,0.000622179,226.245,NaN
159269,23.9417,20,0.00248441,905.583,0.000621103,226.396,NaN
159570,23.9107,19.9997,0.00247951,906.328,0.000619879,226.582,NaN
159852,23.9146,19.9995,0.00247446,907.027,0.000618615,226.757,NaN
160086,23.9208,19.9999,0.00247069,907.606,0.000617673,226.902,NaN
160294,23.9226,20.0005,0.00246758,908.119,0.000616894,227.03,NaN
160538,23.9042,20.0001,0.0024637,908.722,0.000615926,227.18,NaN
160777,23.9104,19.9996,0.00246009,909.308,0.000615023,227.327,NaN
161010,23.9098,20,0.00245605,909.881,0.000614012,227.47,NaN
161293,23.8939,19.9999,0.00245132,910.576,0.00061283,227.644,NaN
161501,23.9007,19.9996,0.00244828,911.085,0.000612071,227.771,NaN
161723,23.9032,19.9998,0.00244494,911.63,0.000611235,227.907,NaN
162028,23.8562,19.9994,0.00244034,912.373,0.000610085,228.093,NaN
162380,23.8742,19.9998,0.00243528,913.232,0.000608821,228.308,NaN
162674,23.8681,19.9994,0.00243076,913.948,0.00060769,228.487,NaN
162928,23.8874,20.0001,0.00242717,914.566,0.000606793,228.641,NaN
163223,23.8881,20.0001,0.00242283,915.28,0.000605708,228.82,NaN
163432,23.9009,19.9996,0.00241976,915.787,0.00060494,228.947,NaN
163670,23.8853,19.9998,0.00241642,916.361,0.000604104,229.09,NaN
163967,23.8878,19.9994,0.00241155,917.079,0.000602887,229.27,NaN
164217,23.8554,19.9998,0.00240777,917.681,0.000601943,229.42,NaN
164466,23.8736,20,0.00240474,918.279,0.000601185,229.57,NaN
164743,23.8805,20,0.00240079,918.944,0.000600196,229.736,NaN
165090,23.8523,20,0.00239625,919.778,0.000599062,229.945,NaN
165355,23.903,19.9996,0.00239243,920.412,0.000598107,230.103,NaN
165550,23.8519,19.9998,0.00238961,920.878,0.000597403,230.219,NaN
165782,23.8586,19.9995,0.00238628,921.433,0.000596569,230.358,NaN
166009,23.8379,19.9995,0.00238361,921.974,0.000595901,230.493,NaN
166294,23.8981,20,0.00237922,922.652,0.000594804,230.663,NaN
166694,23.8573,19.9998,0.00237369,923.604,0.000593421,230.901,NaN
166939,23.8481,20.0001,0.00236914,924.185,0.000592285,231.046,NaN
167205,23.8713,19.9997,0.00236593,924.813,0.000591482,231.203,NaN
167517,23.8625,19.9995,0.00236202,925.551,0.000590506,231.388,NaN
167780,23.8429,19.9999,0.00235822,926.172,0.000589554,231.543,NaN
167967,23.8408,20.0001,0.00235575,926.614,0.000588938,231.653,NaN
168279,23.8429,19.9997,0.00235159,927.347,0.000587898,231.837,NaN
168494,23.8308,20.0001,0.00234925,927.852,0.000587313,231.963,NaN
168722,23.8296,19.9992,0.00234584,928.388,0.000586461,232.097,NaN
168967,23.8568,19.9998,0.00234285,928.963,0.000585712,232.241,NaN
169166,23.8346,19.9997,0.00233987,929.428,0.000584968,232.357,NaN
169436,23.8485,19.9998,0.00233644,930.06,0.000584109,232.515,NaN
169703,23.8243,19.9999,0.00233266,930.683,0.000583165,232.671,NaN
169955,23.8392,19.9993,0.00232909,931.271,0.000582273,232.818,NaN
170195,23.8757,19.9996,0.00232631,931.829,0.000581578,232.957,NaN
170405,23.8696,19.9998,0.00232428,932.318,0.000581071,233.079,NaN
170702,23.8336,20.0003,0.00232011,933.007,0.000580028,233.252,NaN
170945,23.839,19.9997,0.00231688,933.57,0.000579221,233.393,NaN
171246,23.8574,19.9992,0.00231307,934.267,0.000578268,233.567,NaN
171571,23.8715,20.0002,0.00230896,935.019,0.00057724,233.755,NaN
171786,23.8676,20,0.0023063,935.514,0.000576576,233.879,NaN
171960,23.8944,19.9999,0.00230421,935.916,0.000576052,233.979,NaN
172201,23.8664,19.9997,0.00230157,936.471,0.000575391,234.118,NaN
172521,23.8793,19.9997,0.0022973,937.206,0.000574326,234.301,NaN
172772,23.8747,20,0.00229469,937.783,0.000573672,234.446,NaN
173040,23.888,20,NaN,NaN,NaN,NaN,NaN
173381,23.8729,20.0002,NaN,NaN,NaN,NaN,NaN
173668,23.9017,19.9995,NaN,NaN,NaN,NaN,NaN
174033,23.8816,19.9999,NaN,NaN,NaN,NaN,NaN
174388,23.937,20.0001,NaN,NaN,NaN,NaN,NaN
174786,23.9074,19.9996,NaN,NaN,NaN,NaN,NaN
175259,23.8873,19.9996,NaN,NaN,NaN,NaN,NaN
175571,23.8923,19.9999,NaN,NaN,NaN,NaN,NaN
175941,23.9168,20.0001,NaN,NaN,NaN,NaN,NaN
176284,23.9131,20,NaN,NaN,NaN,NaN,NaN
176652,23.9286,19.9999,NaN,NaN,NaN,NaN,NaN
176952,23.9167,19.9998,NaN,NaN,NaN,NaN,NaN
177287,23.9242,20.0003,NaN,NaN,NaN,NaN,NaN
177605,23.9106,20.0001,NaN,NaN,NaN,NaN,NaN
177848,23.9667,19.9998,NaN,NaN,NaN,NaN,NaN
178131,23.9489,20,NaN,NaN,NaN,NaN,NaN
178527,23.9403,19.9998,NaN,NaN,NaN,NaN,NaN
178829,23.9841,20,NaN,NaN,NaN,NaN,NaN
179139,23.9715,20.0002,NaN,NaN,NaN,NaN,NaN
179677,23.9737,20.0001,NaN,NaN,NaN,NaN,NaN
179941,24.0041,19.9997,NaN,NaN,NaN,NaN,NaN
180266,23.996,19.9995,NaN,NaN,NaN,NaN,NaN
180532,23.9916,19.9996,NaN,NaN,NaN,NaN,NaN
180803,23.9494,20,NaN,NaN,NaN,NaN,NaN
180991,23.9927,19.9997,NaN,NaN,NaN,NaN,NaN
181277,23.9624,19.9996,NaN,NaN,NaN,NaN,NaN
181495,24.0076,19.9994,NaN,NaN,NaN,NaN,NaN
181843,23.9545,19.9999,NaN,NaN,NaN,NaN,NaN
182161,24.0107,19.9997,NaN,NaN,NaN,NaN,NaN
182464,23.9787,19.9993,NaN,NaN,NaN,NaN,NaN
182801,23.9894,19.9997,NaN,NaN,NaN,NaN,NaN
183098,23.9917,20.0001,NaN,NaN,NaN,NaN,NaN
183590,23.9787,20,NaN,NaN,NaN,NaN,NaN
184052,24.0418,20,NaN,NaN,NaN,NaN,NaN
184488,24.0389,19.9995,NaN,NaN,NaN,NaN,NaN
184709,23.9987,19.9992,NaN,NaN,NaN,NaN,NaN
185007,24.0674,19.9994,NaN,NaN,NaN,NaN,NaN
185308,24.1718,19.9999,NaN,NaN,NaN,NaN,NaN
185704,24.1483,19.9999,NaN,NaN,NaN,NaN,NaN
186041,24.2128,19.9996,NaN,NaN,NaN,NaN,NaN
186282,24.2085,20,NaN,NaN,NaN,NaN,NaN