File: TAInstCalorimetry/DATA/myexp5.csv
Time,Temperature [AmbientT(Therm3T)],Temperature [Temperature],Heat flow [Signal],Heat [Signal],Normalized heat flow [Signal],Normalized heat [Signal],Time markers
0.0,24.518,20,NaN,NaN,NaN,NaN,Reaction start
31.5838,24.5261,20.0003,0.00116167,0.00346218,0.000290417,0.000865546,NaN
51.5838,24.5372,20.0004,0.0150541,0.142368,0.00376351,0.0355921,NaN
71.5838,24.5445,20.0005,0.0355158,0.647522,0.00887894,0.161881,NaN
93.5838,24.5402,20.0002,0.055267,1.65508,0.0138168,0.413769,NaN
111.834,24.5398,20.0001,0.0676301,2.78257,0.0169075,0.695642,NaN
132.584,24.5431,20.0003,0.0773066,4.29338,0.0193266,1.07335,NaN
157.084,24.6394,20.0002,0.0841504,6.27959,0.0210376,1.5699,NaN
183.084,24.5918,20.0001,0.0877071,8.52034,0.0219268,2.13009,NaN
218.334,24.5838,20.0002,0.0887564,11.6403,0.0221891,2.91007,NaN
261.871,24.6292,19.9999,0.0867434,15.4697,0.0216858,3.86743,NaN
315.084,24.5917,20.0003,0.0820737,19.9675,0.0205184,4.99187,NaN
392.084,24.577,20.0003,0.0743963,25.9904,0.0185991,6.49761,NaN
456.521,24.5415,19.9999,0.0686652,30.594,0.0171663,7.64851,NaN
529.771,24.5382,20.0001,0.0633493,35.4228,0.0158373,8.8557,NaN
613.834,24.5598,20.0001,0.0576824,40.5142,0.0144206,10.1286,NaN
680.084,24.5348,20.0001,0.0522996,44.1629,0.0130749,11.0407,NaN
768.584,24.5291,19.9997,0.0441571,48.4334,0.0110393,12.1084,NaN
841.646,24.5349,19.9998,0.0376962,51.4199,0.00942405,12.855,NaN
908.545,24.5596,20.0001,0.0324574,53.7622,0.00811435,13.4406,NaN
964.365,24.5067,20.0001,0.0286613,55.4657,0.00716533,13.8664,NaN
1040.8,24.5325,20,0.0242657,57.483,0.00606642,14.3707,NaN
1120.96,24.532,19.9996,0.0205247,59.2728,0.00513117,14.8182,NaN
1213.58,24.5191,20,0.0170924,61.0082,0.00427311,15.2521,NaN
1295.77,24.6412,19.9994,0.014676,62.3104,0.00366901,15.5776,NaN
1398.58,24.5487,19.9998,0.0122943,63.6915,0.00307358,15.9229,NaN
1520.9,24.5271,19.9999,0.0101593,65.0581,0.00253982,16.2645,NaN
1653.33,24.544,19.9999,0.00846062,66.2853,0.00211515,16.5713,NaN
1809.08,24.5306,19.9992,0.00702244,67.4846,0.00175561,16.8712,NaN
1948.37,24.5297,19.9997,0.0060859,68.3944,0.00152147,17.0986,NaN
2129.45,24.5813,19.9999,0.00519524,69.4113,0.00129881,17.3528,NaN
2288.41,24.5549,19.9998,0.00461814,70.1892,0.00115454,17.5473,NaN
2458.35,24.5888,19.9997,0.00414246,70.9318,0.00103562,17.7329,NaN
2650.81,24.5484,19.9999,0.00372507,71.6872,0.000931267,17.9218,NaN
2841.33,24.5575,19.9998,0.00340032,72.3649,0.00085008,18.0912,NaN
3098.33,24.5716,19.9998,0.00305803,73.1928,0.000764506,18.2982,NaN
3290.29,24.5531,19.9997,0.00285345,73.7596,0.000713362,18.4399,NaN
3513.68,24.5309,19.9995,0.00265486,74.3742,0.000663716,18.5935,NaN
3716.72,24.5983,19.9997,0.00250302,74.8973,0.000625755,18.7243,NaN
3924.44,24.6019,19.9997,0.00236967,75.403,0.000592417,18.8507,NaN
4119.53,24.552,19.9999,0.00226057,75.8545,0.000565141,18.9636,NaN
4365.58,24.6148,19.9996,0.00214128,76.3955,0.00053532,19.0989,NaN
4596.13,24.5599,19.9995,0.00204553,76.878,0.000511382,19.2195,NaN
4850.33,24.5939,20.0011,0.00195463,77.3861,0.000488657,19.3465,NaN
5105.81,24.5624,20.0002,0.00187652,77.8753,0.000469131,19.4688,NaN
5326.02,24.5723,19.9998,0.0018176,78.2819,0.0004544,19.5705,NaN
5535.19,24.5686,20.0002,0.00176812,78.6568,0.000442031,19.6642,NaN
5749.91,24.5808,19.9997,0.0017231,79.0315,0.000430776,19.7579,NaN
5958.04,24.5732,20.0001,0.00168517,79.3861,0.000421291,19.8465,NaN
6187.02,24.5392,19.9999,0.00164948,79.7678,0.00041237,19.9419,NaN
6446.89,24.5985,20,0.00161506,80.1918,0.000403766,20.0479,NaN
6704.78,24.5908,19.9994,0.00158726,80.6046,0.000396815,20.1512,NaN
6893.73,24.5893,19.9996,0.00157046,80.9029,0.000392614,20.2257,NaN
7068.57,24.6126,19.9999,0.00155751,81.1763,0.000389377,20.2941,NaN
7359.25,24.6153,20,0.00153946,81.6263,0.000384865,20.4066,NaN
7620.4,24.6349,20,0.00152751,82.0267,0.000381877,20.5067,NaN
7882.24,24.5834,19.9998,0.00151775,82.4254,0.000379437,20.6063,NaN
8156.62,24.5951,19.9997,0.00150815,82.8405,0.000377039,20.7101,NaN
8422.71,24.6453,20,0.00150247,83.2408,0.000375617,20.8102,NaN
8627.25,24.648,19.9997,0.00150994,83.5487,0.000377486,20.8872,NaN
8911.94,24.6355,19.9996,0.00154303,83.9827,0.000385757,20.9957,NaN
9130.8,24.618,19.9997,0.00158248,84.3245,0.000395621,21.0811,NaN
9343.02,24.6679,19.9996,0.00162667,84.665,0.000406667,21.1662,NaN
9553.84,24.5734,19.9995,0.00167142,85.0126,0.000417854,21.2532,NaN
9776.21,24.6363,19.9998,0.00171847,85.3896,0.000429619,21.3474,NaN
9974.48,24.6283,20.0002,0.00175921,85.7344,0.000439803,21.4336,NaN
10249.3,24.6146,20,0.00181532,86.2256,0.000453831,21.5564,NaN
10510.3,24.6135,20,0.00186687,86.706,0.000466717,21.6765,NaN
10733.8,24.6197,20.0001,0.00191016,87.1282,0.00047754,21.782,NaN
11013.9,24.6459,20,0.00196452,87.671,0.000491129,21.9177,NaN
11253.6,24.5861,19.9999,0.00201122,88.1472,0.000502805,22.0368,NaN
11469.6,24.6452,19.9988,0.00205403,88.5862,0.000513508,22.1465,NaN
11717.2,24.625,19.9989,0.00210345,89.1008,0.000525862,22.2752,NaN
11953.8,24.6122,19.9994,0.00215087,89.6041,0.000537718,22.401,NaN
12163.7,24.6207,20.0003,0.00219448,90.0603,0.000548619,22.5151,NaN
12410,24.5929,20,0.00224537,90.6069,0.000561343,22.6517,NaN
12675.3,24.5967,19.9999,0.00230152,91.2101,0.000575381,22.8025,NaN
12899.1,24.6038,19.9998,0.00234975,91.7304,0.000587437,22.9326,NaN
13133.6,24.6246,20,0.00240116,92.2874,0.000600289,23.0719,NaN
13366.6,24.5846,19.9999,0.00245288,92.853,0.000613221,23.2132,NaN
13633.3,24.6153,19.9999,0.00251319,93.5153,0.000628298,23.3788,NaN
13846.7,24.6039,19.9996,0.00256233,94.0569,0.000640583,23.5142,NaN
14177.2,24.5893,19.9999,0.00264046,94.9165,0.000660116,23.7291,NaN
14370,24.6377,19.9997,0.00268651,95.4299,0.000671628,23.8575,NaN
14597.6,24.6479,19.9997,0.00274143,96.0478,0.000685357,24.012,NaN
14784.8,24.5992,20.0003,0.00278754,96.5649,0.000696884,24.1412,NaN
15007.5,24.6258,20,0.0028431,97.1919,0.000710776,24.298,NaN
15229.9,24.6468,19.9999,0.00289952,97.8304,0.000724879,24.4576,NaN
15409.7,24.6483,19.9995,0.00294547,98.356,0.000736367,24.589,NaN
15577.7,24.6582,19.9994,0.00298844,98.8544,0.000747111,24.7136,NaN
15792.4,24.6506,19.9998,0.00304421,99.502,0.000761051,24.8755,NaN
16019.5,24.6232,19.9993,0.00310431,100.2,0.000776078,25.05,NaN
16357.2,24.6435,19.9997,0.00319483,101.264,0.000798707,25.316,NaN
16618.6,24.6287,20,0.0032656,102.108,0.000816399,25.527,NaN
16839.3,24.6376,20.0001,0.00332644,102.836,0.00083161,25.7089,NaN
17056.1,24.6631,20,0.00338655,103.563,0.000846636,25.8907,NaN
17283.7,24.6424,19.9995,0.00345018,104.341,0.000862545,26.0853,NaN
17516.3,24.6357,19.9996,0.0035161,105.151,0.000879026,26.2878,NaN
17699.1,24.6502,19.9999,0.00356788,105.799,0.000891971,26.4496,NaN
17957.2,24.6287,19.9993,0.00364223,106.729,0.000910557,26.6823,NaN
18161.9,24.6306,20.0001,0.00370178,107.481,0.000925445,26.8702,NaN
18359.3,24.6565,20,0.00375961,108.217,0.000939902,27.0543,NaN
18575.3,24.6578,19.9996,0.00382362,109.036,0.000955906,27.2591,NaN
18905.9,24.6415,19.9997,0.00392177,110.317,0.000980441,27.5791,NaN
19124.6,24.6221,20.0003,0.00398747,111.181,0.000996868,27.7954,NaN
19339.4,24.6055,20.0007,0.00405257,112.045,0.00101314,28.0112,NaN
19541.1,24.654,20,0.00411378,112.868,0.00102844,28.217,NaN
19796.9,24.6353,20,0.00419183,113.931,0.00104796,28.4827,NaN
20043.4,24.6949,19.9999,0.00426875,114.973,0.00106719,28.7433,NaN
20283.9,24.681,20.0004,0.00434377,116.009,0.00108594,29.0022,NaN
20509.9,24.6602,19.9997,0.00441392,116.999,0.00110348,29.2497,NaN
20700.6,24.6778,20,0.00447432,117.846,0.00111858,29.4615,NaN
20951.6,24.6752,20.0001,0.00455396,118.979,0.00113849,29.7447,NaN
21183.4,24.658,19.9996,0.0046274,120.043,0.00115685,30.0109,NaN
21415.6,24.658,19.9994,0.00470145,121.127,0.00117536,30.2817,NaN
21688.1,24.7124,19.9994,0.00478918,122.42,0.00119729,30.6049,NaN
21944.1,24.6626,19.9997,0.00487156,123.656,0.00121789,30.914,NaN
22127.2,24.6595,19.9996,0.00493092,124.553,0.00123273,31.1383,NaN
22380.4,24.6756,20.0003,0.00501265,125.812,0.00125316,31.453,NaN
22555.6,24.6722,19.9996,0.00506982,126.695,0.00126746,31.6738,NaN
22771.2,24.6682,20.0001,0.00513991,127.796,0.00128498,31.949,NaN
23058.9,24.6954,19.9996,0.00523322,129.288,0.0013083,32.322,NaN
23277.4,24.692,20,0.00530433,130.44,0.00132608,32.6099,NaN
23492.2,24.6852,19.9999,0.00537462,131.586,0.00134365,32.8966,NaN
23705.2,24.6982,19.9997,0.00544419,132.738,0.00136105,33.1846,NaN
23928.9,24.6951,20,0.00551692,133.965,0.00137923,33.4911,NaN
24231.6,24.699,20,0.00561596,135.65,0.00140399,33.9124,NaN
24461.2,24.6981,19.9999,0.00569086,136.947,0.00142271,34.2368,NaN
24794,24.6978,19.9996,0.00579899,138.86,0.00144975,34.715,NaN
25030.1,24.7143,19.9998,0.00587517,140.238,0.00146879,35.0595,NaN
25323.8,24.7181,19.9999,0.00597007,141.977,0.00149252,35.4943,NaN
25559.8,24.7068,19.9997,0.00604592,143.396,0.00151148,35.8489,NaN
25763.2,24.6973,19.9997,0.006111,144.631,0.00152775,36.1578,NaN
25963.1,24.7114,19.9999,0.00617494,145.859,0.00154373,36.4649,NaN
26196.7,24.7228,19.9997,0.00624882,147.31,0.00156221,36.8276,NaN
26443.4,24.7225,20.0002,0.00632633,148.862,0.00158158,37.2155,NaN
26711.8,24.7173,20,0.00641114,150.571,0.00160278,37.6427,NaN
26922.8,24.7454,19.9997,0.00647695,151.931,0.00161924,37.9828,NaN
27199.8,24.72,20,0.00656233,153.737,0.00164058,38.4343,NaN
27428.1,24.723,19.9996,0.00663244,155.243,0.00165811,38.8108,NaN
27709.9,24.7338,20.0001,0.00671798,157.124,0.00167949,39.2811,NaN
27925.4,24.7335,20.0003,0.00678204,158.579,0.00169551,39.6447,NaN
28181.6,24.7456,19.9992,0.00685854,160.326,0.00171463,40.0816,NaN
28472.2,24.6983,20,0.00694309,162.331,0.00173577,40.5828,NaN
28681.9,24.7507,20.0001,0.00700376,163.794,0.00175094,40.9484,NaN
28935.1,24.734,19.9998,0.00707675,165.577,0.00176919,41.3942,NaN
29180.2,24.722,20,0.00714589,167.319,0.00178647,41.8298,NaN
29388.7,24.6982,20.0004,0.00720349,168.815,0.00180087,42.2038,NaN
29630.4,24.6833,19.9999,0.00726994,170.565,0.00181748,42.6411,NaN
29829.3,24.7201,19.9997,0.00732417,172.016,0.00183104,43.0039,NaN
30084.2,24.6867,19.9999,0.00739247,173.892,0.00184812,43.473,NaN
30303.7,24.6412,20.0003,0.00745051,175.52,0.00186263,43.8801,NaN
30532,24.6493,19.9997,0.00750961,177.229,0.0018774,44.3072,NaN
30764.5,24.6494,19.9995,0.00756918,178.982,0.00189229,44.7454,NaN
30956,24.6164,19.9993,0.00761711,180.436,0.00190428,45.1089,NaN
31154.7,24.6097,19.9996,0.00766626,181.954,0.00191657,45.4885,NaN
31396.1,24.5913,19.9998,0.00772474,183.811,0.00193119,45.9528,NaN
31660.6,24.6218,19.9997,0.00778708,185.863,0.00194677,46.4658,NaN
31906.7,24.5678,20,0.00784433,187.786,0.00196108,46.9465,NaN
32082.5,24.5806,19.9994,0.00788394,189.169,0.00197098,47.2922,NaN
32265.1,24.568,19.9998,0.00792494,190.612,0.00198123,47.653,NaN
32548.4,24.5597,19.9999,0.00798579,192.866,0.00199645,48.2165,NaN
32742.2,24.5658,19.9998,0.00802721,194.418,0.0020068,48.6044,NaN
33032.1,24.5554,19.9995,0.00808762,196.754,0.0020219,49.1884,NaN
33274.9,24.5685,19.9998,0.0081366,198.724,0.00203415,49.6809,NaN
33498.4,24.558,19.9999,0.00818041,200.546,0.0020451,50.1366,NaN
33796.4,24.5372,20.0001,0.00823661,202.993,0.00205915,50.7481,NaN
34025.9,24.5288,19.9997,0.0082786,204.888,0.00206965,51.2219,NaN
34304.3,24.5143,19.9999,0.00832754,207.2,0.00208189,51.7999,NaN
34526.5,24.5012,19.9997,0.00836557,209.054,0.00209139,52.2635,NaN
34832.9,24.5114,19.9999,0.00841662,211.625,0.00210415,52.9062,NaN
35076.7,24.4754,19.9998,0.00845617,213.682,0.00211404,53.4206,NaN
35288,24.5118,19.9997,0.00848893,215.472,0.00212223,53.8681,NaN
35510.9,24.5121,19.9999,0.00852156,217.368,0.00213039,54.342,NaN
35784,24.5118,20,0.00856052,219.701,0.00214013,54.9252,NaN
36000.7,24.4697,20,0.00859096,221.559,0.00214774,55.3898,NaN
36360.9,24.4959,19.9989,0.00863774,224.662,0.00215944,56.1656,NaN
36605.8,24.4891,19.9993,0.00866822,226.781,0.00216705,56.6953,NaN
36865.7,24.4686,19.9994,0.00869907,229.038,0.00217477,57.2596,NaN
37108.5,24.485,19.9999,0.00872622,231.153,0.00218155,57.7884,NaN
37466.1,24.4692,19.9999,0.00876383,234.281,0.00219096,58.5703,NaN
37715.8,24.4668,19.9995,0.00878858,236.473,0.00219715,59.1182,NaN
37986.6,24.4486,19.9996,0.00881436,238.856,0.00220359,59.7139,NaN
38248,24.4498,19.9997,0.00883705,241.163,0.00220926,60.2908,NaN
38482.2,24.3907,19.9996,0.00885614,243.235,0.00221404,60.8086,NaN
38688.7,24.4874,20.0001,0.00887198,245.065,0.002218,61.2663,NaN
38947.2,24.4631,19.9998,0.00889126,247.361,0.00222282,61.8402,NaN
39208.1,24.4295,20.0001,0.0089084,249.683,0.0022271,62.4208,NaN
39437.2,24.4467,19.9999,0.00892272,251.725,0.00223068,62.9313,NaN
39683.4,24.4369,20,0.0089368,253.925,0.0022342,63.4812,NaN
39882.2,24.4546,19.9997,0.008947,255.702,0.00223675,63.9255,NaN
40169.5,24.4154,19.9998,0.00896049,258.275,0.00224012,64.5686,NaN
40388.8,24.4258,19.9997,0.00897065,260.24,0.00224266,65.06,NaN
40632.3,24.419,20.0002,0.00898,262.426,0.002245,65.6066,NaN
40858.8,24.4422,19.9999,0.0089877,264.461,0.00224692,66.1151,NaN
41125.1,24.4298,19.9999,0.00899531,266.855,0.00224883,66.7139,NaN
41365.6,24.448,19.9997,0.00900121,269.02,0.0022503,67.2549,NaN
41692.5,24.4008,19.9992,0.00900825,271.963,0.00225206,67.9908,NaN
41879.7,24.418,20.0001,0.00901086,273.65,0.00225271,68.4124,NaN
42082.4,24.4315,19.9998,0.009013,275.476,0.00225325,68.8691,NaN
42347.8,24.3897,19.9997,0.00901487,277.869,0.00225372,69.4672,NaN
42567.7,24.4232,19.9997,0.00901652,279.852,0.00225413,69.9629,NaN
42847.2,24.4106,19.9998,0.00901707,282.372,0.00225427,70.593,NaN
43083.8,24.3728,19.9995,0.00901651,284.505,0.00225413,71.1263,NaN
43275.6,24.4122,19.9996,0.00901528,286.234,0.00225382,71.5585,NaN
43505,24.3833,20.0006,0.00901367,288.303,0.00225342,72.0756,NaN
43750,24.38,19.9997,0.00901042,290.511,0.00225261,72.6276,NaN
43957.5,24.348,20.0002,0.00900722,292.379,0.00225181,73.0948,NaN
44210.5,24.3602,19.9999,0.00900256,294.658,0.00225064,73.6645,NaN
44454.6,24.3618,20.0001,0.0089976,296.855,0.0022494,74.2137,NaN
44661,24.377,19.9995,0.00899292,298.711,0.00224823,74.6778,NaN
44898.7,24.3261,19.9999,0.00898736,300.848,0.00224684,75.2121,NaN
45151.6,24.3544,19.9996,0.00898065,303.121,0.00224516,75.7801,NaN
45390.9,24.3407,19.9995,0.00897404,305.269,0.00224351,76.3172,NaN
45645.5,24.3482,19.9998,0.00896636,307.553,0.00224159,76.8882,NaN
45920.3,24.3772,20.0002,0.00895836,310.016,0.00223959,77.5039,NaN
46126.1,24.3594,19.9999,0.00895207,311.858,0.00223802,77.9645,NaN
46308,24.3657,19.9999,0.0089467,313.486,0.00223667,78.3715,NaN
46519,24.3676,20.0001,0.00894063,315.373,0.00223516,78.8432,NaN
46764.9,24.313,19.9997,0.00893375,317.571,0.00223344,79.3927,NaN
47032.6,24.3037,19.9997,0.0089274,319.961,0.00223185,79.9903,NaN
47247,24.3489,20.0003,0.00892286,321.875,0.00223072,80.4688,NaN
47473.6,24.3229,19.9996,0.00891957,323.896,0.00222989,80.9741,NaN
47717.6,24.3186,20.0001,0.00891773,326.073,0.00222943,81.5182,NaN
47928.4,24.3362,19.9999,0.00891697,327.952,0.00222924,81.9881,NaN
48123.3,24.3504,20,0.00891758,329.69,0.00222939,82.4226,NaN
48360.4,24.2759,19.9996,0.00892133,331.805,0.00223033,82.9513,NaN
48572.2,24.3102,19.9996,0.00892619,333.695,0.00223155,83.4238,NaN
48757.7,24.306,19.9999,0.00893257,335.351,0.00223314,83.8379,NaN
48960.9,24.2862,19.9997,0.00894087,337.168,0.00223522,84.2919,NaN
49158.8,24.3441,19.9996,0.00895031,338.938,0.00223758,84.7346,NaN
49339.6,24.3009,19.9999,0.00896029,340.557,0.00224007,85.1393,NaN
49602.4,24.331,20,0.00897442,342.914,0.00224361,85.7284,NaN
49955.2,24.3089,19.9994,0.00899203,346.083,0.00224801,86.5207,NaN
50191.2,24.3504,19.9997,0.00900131,348.206,0.00225033,87.0515,NaN
50381.6,24.3211,20.0001,0.00900769,349.921,0.00225192,87.4801,NaN
50615,24.311,19.9998,0.00901409,352.024,0.00225352,88.0059,NaN
50857.5,24.3124,20,0.00901932,354.21,0.00225483,88.5526,NaN
51131.7,24.3018,19.9999,0.00902351,356.684,0.00225588,89.171,NaN
51365.1,24.2738,19.9999,0.00902551,358.79,0.00225638,89.6976,NaN
51602.1,24.2781,19.9995,0.00902709,360.93,0.00225677,90.2324,NaN
51862.4,24.3305,19.9995,0.00902831,363.28,0.00225708,90.82,NaN
52047.3,24.2999,19.9998,0.00902879,364.949,0.0022572,91.2372,NaN
52286.8,24.3192,19.9999,0.00902819,367.112,0.00225705,91.7779,NaN
52511.3,24.3002,19.9998,0.00902787,369.138,0.00225697,92.2845,NaN
52821.4,24.2486,20,0.00902554,371.937,0.00225638,92.9844,NaN
53045.8,24.2684,19.9998,0.00902259,373.962,0.00225565,93.4905,NaN
53246.7,24.309,19.9998,0.00901973,375.775,0.00225493,93.9438,NaN
53513.7,24.2831,20.0001,0.00901455,378.182,0.00225364,94.5456,NaN
53782.5,24.2677,19.9994,0.00900762,380.604,0.00225191,95.151,NaN
54001.9,24.256,20.0007,0.00900057,382.58,0.00225014,95.645,NaN
54246.3,24.2831,20.0001,0.00899214,384.779,0.00224803,96.1947,NaN
54476.9,24.2803,19.9994,0.00898326,386.851,0.00224582,96.7128,NaN
54661.7,24.2864,20.0002,0.008975,388.511,0.00224375,97.1277,NaN
54894.1,24.2974,19.9999,0.00896366,390.595,0.00224092,97.6487,NaN
55121.3,24.2739,20.0001,0.00895214,392.63,0.00223804,98.1575,NaN
55351.2,24.273,19.9997,0.00893942,394.687,0.00223485,98.6717,NaN
55584.4,24.2742,20,0.00892549,396.77,0.00223137,99.1925,NaN
55806.9,24.2417,19.9995,0.00891181,398.754,0.00222795,99.6886,NaN
56097.5,24.242,19.9997,0.00889188,401.341,0.00222297,100.335,NaN
56346,24.2634,19.9997,0.00887349,403.549,0.00221837,100.887,NaN
56620.3,24.2323,19.9999,0.00885264,405.98,0.00221316,101.495,NaN
56827.3,24.2867,20,0.00883597,407.811,0.00220899,101.953,NaN
57131.7,24.2496,19.9996,0.00881057,410.497,0.00220264,102.624,NaN
57414.2,24.265,19.9996,0.00878531,412.982,0.00219633,103.246,NaN
57636,24.2598,19.9995,0.00876464,414.928,0.00219116,103.732,NaN
57917.2,24.2927,19.9996,0.00873812,417.389,0.00218453,104.347,NaN
58164.2,24.2501,19.9995,0.00871395,419.545,0.00217849,104.886,NaN
58435.6,24.2369,19.9998,0.00868665,421.906,0.00217166,105.476,NaN
58712.4,24.227,20.0001,0.00865775,424.307,0.00216444,106.077,NaN
58942.7,24.2357,19.9999,0.00863328,426.297,0.00215832,106.574,NaN
59175,24.2387,19.9997,0.00860763,428.3,0.00215191,107.075,NaN
59421.1,24.2371,20.0002,0.00858088,430.415,0.00214522,107.604,NaN
59687.8,24.1992,19.9996,0.00855136,432.7,0.00213784,108.175,NaN
59957,24.2406,19.9999,0.00852068,434.998,0.00213017,108.749,NaN
60246.5,24.2415,20.0001,0.00848731,437.459,0.00212183,109.365,NaN
60517.2,24.238,20.0001,0.00845576,439.752,0.00211394,109.938,NaN
60742.8,24.2416,19.9998,0.00842786,441.657,0.00210696,110.414,NaN
61009.6,24.2408,20,0.00839568,443.902,0.00209892,110.975,NaN
61242.5,24.2273,19.9999,0.00836731,445.853,0.00209183,111.463,NaN
61453.2,24.2628,19.9998,0.00834164,447.614,0.00208541,111.904,NaN
61660.3,24.2379,20,0.00831581,449.339,0.00207895,112.335,NaN
61898.7,24.2437,20,0.00828634,451.318,0.00207158,112.829,NaN
62145.9,24.2607,19.9996,0.00825575,453.362,0.00206394,113.341,NaN
62356.3,24.2482,19.9994,0.00822906,455.097,0.00205726,113.774,NaN
62620.3,24.238,19.9995,0.00819611,457.265,0.00204903,114.316,NaN
62874.1,24.2467,19.9998,0.0081643,459.341,0.00204108,114.835,NaN
63120.2,24.2289,19.9999,0.00813307,461.346,0.00203327,115.337,NaN
63384.1,24.2622,19.9996,0.0081008,463.488,0.0020252,115.872,NaN
63571.7,24.2502,19.9994,0.00807763,465.006,0.00201941,116.251,NaN
63827.8,24.236,19.9995,0.00804565,467.07,0.00201141,116.768,NaN
64048.2,24.2153,20.0001,0.00801783,468.841,0.00200446,117.21,NaN
64234.2,24.2236,20,0.00799426,470.33,0.00199856,117.583,NaN
64497.6,24.231,19.9997,0.00795989,472.431,0.00198997,118.108,NaN
64747,24.2441,20,0.00792865,474.412,0.00198216,118.603,NaN
64960.6,24.2428,20,0.00790164,476.103,0.00197541,119.026,NaN
65197.4,24.2351,19.9999,0.00787148,477.97,0.00196787,119.493,NaN
65402.2,24.2025,20.0003,0.00784595,479.58,0.00196149,119.895,NaN
65678.2,24.2131,19.9996,0.00781122,481.74,0.0019528,120.435,NaN
65951.1,24.1934,20.0001,0.0077775,483.867,0.00194438,120.967,NaN
66144.4,24.2141,19.9996,0.00775328,485.368,0.00193832,121.342,NaN
66402.1,24.1654,20.0004,0.00772127,487.362,0.00193032,121.841,NaN
66604,24.1846,20.0002,0.00769642,488.919,0.0019241,122.23,NaN
66842.7,24.204,19.9996,0.00766753,490.753,0.00191688,122.688,NaN
67089.6,24.2426,19.9999,0.00763854,492.642,0.00190963,123.16,NaN
67353.1,24.1902,19.9995,0.00760598,494.651,0.00190149,123.663,NaN
67546.7,24.1864,19.9994,0.00758267,496.121,0.00189567,124.03,NaN
67749.8,24.2014,19.9996,0.00755944,497.658,0.00188986,124.415,NaN
68000.6,24.195,19.9993,0.00752932,499.551,0.00188233,124.888,NaN
68262,24.1871,19.9996,0.00749856,501.515,0.00187464,125.379,NaN
68494.1,24.2033,19.9994,0.0074712,503.252,0.0018678,125.813,NaN
68747.6,24.1828,19.9997,0.00744185,505.142,0.00186046,126.285,NaN
69052,24.1645,20,0.00740705,507.402,0.00185176,126.85,NaN
69285.1,24.1766,20.0003,0.00737996,509.125,0.00184499,127.281,NaN
69529.7,24.1803,19.9997,0.00735229,510.927,0.00183807,127.732,NaN
69766.8,24.1882,20,0.00732568,512.668,0.00183142,128.167,NaN
70028.3,24.1796,19.9999,0.00729651,514.579,0.00182413,128.645,NaN
70355,24.1526,19.9996,0.00726052,516.957,0.00181513,129.239,NaN
70613.7,24.1662,19.9998,0.00723218,518.832,0.00180804,129.708,NaN
70833.8,24.2024,19.9997,0.00720825,520.421,0.00180206,130.105,NaN
71049.7,24.138,19.9998,0.00718466,521.974,0.00179616,130.494,NaN
71247.6,24.1815,19.9992,0.00716383,523.395,0.00179096,130.849,NaN
71477.4,24.145,19.9996,0.00713892,525.038,0.00178473,131.259,NaN
71674.9,24.1476,19.9997,0.00711859,526.446,0.00177965,131.611,NaN
71913.3,24.1733,19.9998,0.00709435,528.14,0.00177359,132.035,NaN
72131.3,24.1273,20.0001,0.00707129,529.684,0.00176782,132.421,NaN
72310.1,24.1998,19.9997,0.00705292,530.946,0.00176323,132.737,NaN
72514.7,24.1375,19.9993,0.00703232,532.387,0.00175808,133.097,NaN
72755.8,24.1895,19.9999,0.00700712,534.08,0.00175178,133.52,NaN
73048.3,24.1838,19.9995,0.00697761,536.125,0.0017444,134.031,NaN
73350.7,24.1421,19.9996,0.00694777,538.231,0.00173694,134.558,NaN
73570.6,24.1421,19.9996,0.00692608,539.756,0.00173152,134.939,NaN
73821.6,24.1466,20.0001,0.00690088,541.492,0.00172522,135.373,NaN
74016.2,24.1508,20,0.00688189,542.832,0.00172047,135.708,NaN
74277.1,24.1556,19.9999,0.00685698,544.625,0.00171424,136.156,NaN
74530.5,24.1314,20.0007,0.00683243,546.359,0.00170811,136.59,NaN
74763.3,24.1669,20.0002,0.00681026,547.947,0.00170256,136.987,NaN
74999.9,24.1383,19.9993,0.00678748,549.556,0.00169687,137.389,NaN
75236,24.1172,19.9996,0.00676546,551.155,0.00169136,137.789,NaN
75427.9,24.1305,20,0.00674806,552.452,0.00168702,138.113,NaN
75727,24.1441,19.9998,0.00671991,554.466,0.00167998,138.617,NaN
76014.1,24.1437,19.9996,0.00669337,556.391,0.00167334,139.098,NaN
76233.3,24.112,20,0.00667271,557.857,0.00166818,139.464,NaN
76448.5,24.1554,19.9997,0.00665362,559.291,0.0016634,139.823,NaN
76631.3,24.1459,19.9993,0.00663706,560.505,0.00165926,140.126,NaN
76819.7,24.1163,19.9996,0.00661977,561.754,0.00165494,140.438,NaN
77049.6,24.131,19.9993,0.00659916,563.273,0.00164979,140.818,NaN
77324.9,24.1164,19.9998,0.00657461,565.087,0.00164365,141.272,NaN
77610.7,24.0996,19.9993,0.00654884,566.962,0.00163721,141.741,NaN
77843.6,24.1349,19.9998,0.00652818,568.485,0.00163205,142.121,NaN
78054.1,24.1163,19.9998,0.00650904,569.857,0.00162726,142.464,NaN
78248.7,24.1259,19.9996,0.00649154,571.122,0.00162289,142.781,NaN
78454.9,24.1386,20,0.0064742,572.459,0.00161855,143.115,NaN
78694.6,24.1132,19.9999,0.00645288,574.008,0.00161322,143.502,NaN
79011.7,24.1014,19.9995,0.00642514,576.05,0.00160629,144.012,NaN
79225.9,24.1151,20.0002,0.00640633,577.424,0.00160158,144.356,NaN
79443.3,24.1182,19.9996,0.00638771,578.815,0.00159693,144.704,NaN
79753.9,24.1301,19.9999,0.00636082,580.795,0.00159021,145.199,NaN
80000.1,24.1142,19.9994,0.00633936,582.358,0.00158484,145.59,NaN
80217.4,24.1083,19.9996,0.00632091,583.734,0.00158023,145.933,NaN
80481.5,24.1067,19.9999,0.00629854,585.4,0.00157463,146.35,NaN
80688.6,24.1279,19.9998,0.00628053,586.703,0.00157013,146.676,NaN
80930.7,24.0972,19.9998,0.00626026,588.221,0.00156507,147.055,NaN
81094.5,24.1316,19.9993,0.00624659,589.245,0.00156165,147.311,NaN
81333.6,24.1082,19.9998,0.00622641,590.736,0.0015566,147.684,NaN
81574.3,24.0984,20.0002,0.00620617,592.232,0.00155154,148.058,NaN
81787.9,24.128,20.0001,0.00618836,593.556,0.00154709,148.389,NaN
82011.9,24.1256,19.9996,0.00616967,594.94,0.00154242,148.735,NaN
82205.3,24.0787,20.0001,0.00615349,596.132,0.00153837,149.033,NaN
82521,24.1208,19.9998,0.00612735,598.07,0.00153184,149.518,NaN
82793.3,24.1155,19.9996,0.00610489,599.736,0.00152622,149.934,NaN
83050.6,24.0755,20.0002,0.00608393,601.304,0.00152098,150.326,NaN
83377.9,24.1383,19.9999,0.00605719,603.291,0.0015143,150.823,NaN
83672.7,24.1553,19.9996,0.00603344,605.073,0.00150836,151.268,NaN
83875.2,24.1126,19.9998,0.00601702,606.293,0.00150425,151.573,NaN
84147,24.1072,19.9998,0.00599529,607.926,0.00149882,151.981,NaN
84444.6,24.1225,20.0003,0.00597158,609.706,0.0014929,152.427,NaN
84679.1,24.1533,20.0003,0.00595274,611.104,0.00148819,152.776,NaN
84908.4,24.1214,19.9998,0.00593459,612.467,0.00148365,153.117,NaN
85136.6,24.1552,20,0.00591625,613.819,0.00147906,153.455,NaN
85365.8,24.1454,20.0002,0.00589804,615.173,0.00147451,153.793,NaN
85713,24.1536,20.0001,0.00587095,617.216,0.00146774,154.304,NaN
85992.1,24.147,20.0001,0.00584934,618.852,0.00146234,154.713,NaN
86215.7,24.1486,19.9997,0.00583202,620.158,0.001458,155.039,NaN
86420.6,24.1461,19.9997,0.00581606,621.351,0.00145401,155.338,NaN
86588.2,24.1412,19.9999,0.00580332,622.325,0.00145083,155.581,NaN
86766.1,24.1362,20,0.00578986,623.356,0.00144746,155.839,NaN
86985.6,24.1109,20.0001,0.00577307,624.625,0.00144327,156.156,NaN
87173.4,24.1647,20.0001,0.00575859,625.708,0.00143965,156.427,NaN
87361.4,24.1397,20.0002,0.00574408,626.789,0.00143602,156.697,NaN
87555.6,24.091,19.9999,0.00572914,627.903,0.00143229,156.976,NaN
87807.9,24.1486,20.0001,0.00571109,629.346,0.00142777,157.337,NaN
88083.2,24.1597,19.9997,0.00569046,630.916,0.00142261,157.729,NaN
88283.3,24.1537,20,0.00567608,632.053,0.00141902,158.013,NaN
88525.3,24.1738,19.9999,0.00565841,633.424,0.0014146,158.356,NaN
88717.4,24.1326,19.9995,0.00564404,634.51,0.00141101,158.627,NaN
88908.8,24.1583,20,0.0056297,635.589,0.00140743,158.897,NaN
89143.5,24.1805,19.9999,0.00561274,636.908,0.00140318,159.227,NaN
89396.8,24.18,19.9995,0.00559473,638.327,0.00139868,159.582,NaN
89666.1,24.1697,19.9996,0.00557497,639.832,0.00139374,159.958,NaN
89852.3,24.1802,19.9999,0.00556166,640.868,0.00139041,160.217,NaN
90100.5,24.1683,19.9993,0.00554404,642.246,0.00138601,160.562,NaN
90295,24.1803,19.9995,0.00553024,643.324,0.00138256,160.831,NaN
90493.5,24.1552,19.9996,0.00551614,644.42,0.00137904,161.105,NaN
90686.7,24.153,19.9998,0.00550256,645.484,0.00137564,161.371,NaN
90922.4,24.1653,19.9999,0.00548627,646.779,0.00137157,161.695,NaN
91166.2,24.1951,20,0.00546948,648.115,0.00136737,162.029,NaN
91389.8,24.1583,19.9998,0.00545403,649.336,0.00136351,162.334,NaN
91578.2,24.1658,19.9998,0.00544085,650.363,0.00136021,162.591,NaN
91800.4,24.1852,19.9997,0.00542565,651.57,0.00135641,162.892,NaN
92002.1,24.1766,19.9996,0.00541187,652.662,0.00135297,163.166,NaN
92234.8,24.1726,19.9997,0.00539636,653.92,0.00134909,163.48,NaN
92467.8,24.201,19.9998,0.00538048,655.176,0.00134512,163.794,NaN
92721.9,24.2217,19.9999,0.00536361,656.541,0.0013409,164.135,NaN
92961.9,24.1983,19.9998,0.00534782,657.826,0.00133695,164.456,NaN
93175.3,24.2034,20,0.00533322,658.966,0.0013333,164.741,NaN
93448.2,24.1684,19.9999,0.0053159,660.419,0.00132898,165.105,NaN
93727.8,24.1893,19.9997,0.0052978,661.903,0.00132445,165.476,NaN
93936.4,24.1504,19.9999,0.00528391,663.006,0.00132098,165.752,NaN
94226.7,24.2068,20.0002,0.00526551,664.538,0.00131638,166.134,NaN
94511.6,24.1741,20.0001,0.00524677,666.035,0.00131169,166.509,NaN
94807.2,24.1858,20,0.00522779,667.583,0.00130695,166.896,NaN
95122.7,24.1673,20.0001,0.00520771,669.229,0.00130193,167.307,NaN
95350.6,24.1166,19.9998,0.00519325,670.414,0.00129831,167.604,NaN
95543.9,24.2025,19.9997,0.00518091,671.417,0.00129523,167.854,NaN
95742.2,24.1907,20.0001,0.00516829,672.443,0.00129207,168.111,NaN
95950.9,24.1962,19.9997,0.00515548,673.521,0.00128887,168.38,NaN
96179.3,24.1908,20.0001,0.00514144,674.696,0.00128536,168.674,NaN
96417.4,24.1917,19.9999,0.00512671,675.919,0.00128168,168.98,NaN
96643.4,24.2103,20.0001,0.00511278,677.076,0.0012782,169.269,NaN
96957.1,24.1918,20,0.00509349,678.677,0.00127337,169.669,NaN
97196.8,24.1616,19.9998,0.0050793,679.896,0.00126983,169.974,NaN
97439.7,24.2078,19.9996,0.00506421,681.128,0.00126605,170.282,NaN
97683.1,24.2182,20.0001,0.00504939,682.359,0.00126235,170.59,NaN
97972.9,24.1919,20.0002,0.00503215,683.82,0.00125804,170.955,NaN
98268,24.2049,19.9995,0.00501548,685.302,0.00125387,171.326,NaN
98534.7,24.19,19.9996,0.00499996,686.638,0.00124999,171.659,NaN
98810.7,24.1984,19.9998,0.00498339,688.015,0.00124585,172.004,NaN
99043.7,24.1886,19.9996,0.00496978,689.175,0.00124244,172.294,NaN
99292.5,24.2185,19.9997,0.00495496,690.41,0.00123874,172.602,NaN
99558.6,24.1868,19.9995,0.00493937,691.726,0.00123484,172.932,NaN
99815.2,24.1801,19.9997,0.0049248,692.992,0.0012312,173.248,NaN
100048,24.2016,19.9999,0.00491161,694.135,0.0012279,173.534,NaN
100342,24.176,20,0.00489447,695.576,0.00122362,173.894,NaN
100586,24.1607,19.9998,0.00488098,696.773,0.00122025,174.193,NaN
100902,24.179,19.9996,0.00486288,698.31,0.00121572,174.578,NaN
101131,24.1779,19.9996,0.00485025,699.422,0.00121256,174.856,NaN
101459,24.168,20.0002,0.0048316,701.011,0.0012079,175.253,NaN
101789,24.1553,19.9998,0.00481335,702.603,0.00120334,175.651,NaN
102052,24.192,19.9995,0.0047993,703.866,0.00119982,175.966,NaN
102326,24.167,19.9997,0.00478412,705.18,0.00119603,176.295,NaN
102695,24.1511,19.9996,0.00476398,706.939,0.00119099,176.735,NaN
102953,24.178,20.0006,0.00474977,708.168,0.00118744,177.042,NaN
103278,24.1487,20,0.00473182,709.708,0.00118296,177.427,NaN
103525,24.2316,19.9999,0.00471878,710.878,0.0011797,177.719,NaN
103880,24.1998,19.9998,0.00469937,712.546,0.00117484,178.136,NaN
104132,24.2188,20.0002,0.0046859,713.729,0.00117147,178.432,NaN
104443,24.334,19.9998,0.00466871,715.183,0.00116718,178.796,NaN
104638,24.2058,19.9994,0.00465816,716.093,0.00116454,179.023,NaN
104846,24.3381,20.0001,0.00464679,717.062,0.0011617,179.265,NaN
105076,24.2746,19.9996,0.00463425,718.127,0.00115856,179.532,NaN
105359,24.3258,19.9999,0.00461914,719.44,0.00115478,179.86,NaN
105641,24.3266,20.0002,0.00460364,720.739,0.00115091,180.185,NaN
105849,24.3602,20.0004,0.00459258,721.695,0.00114814,180.424,NaN
106096,24.3463,19.9996,0.00457895,722.828,0.00114474,180.707,NaN
106376,24.2939,19.9995,0.00456352,724.109,0.00114088,181.027,NaN
106581,24.267,19.9999,0.00455256,725.042,0.00113814,181.26,NaN
106861,24.2652,19.9998,0.00453715,726.316,0.00113429,181.579,NaN
107082,24.2699,19.9998,0.00452499,727.314,0.00113125,181.829,NaN
107327,24.2443,19.9986,0.00451148,728.425,0.00112787,182.106,NaN
107617,24.2448,19.9995,0.00449554,729.729,0.00112389,182.432,NaN
107852,24.2716,20.0001,0.00448296,730.786,0.00112074,182.696,NaN
108066,24.2651,20.0001,0.00447035,731.741,0.00111759,182.935,NaN
108324,24.2509,19.9996,0.0044559,732.893,0.00111397,183.223,NaN
108564,24.2337,20.0002,0.00444187,733.961,0.00111047,183.49,NaN
108835,24.2928,19.9996,0.00442626,735.165,0.00110656,183.791,NaN
109155,24.2514,19.9999,0.00440783,736.578,0.00110196,184.145,NaN
109452,24.2678,19.9998,0.00439062,737.884,0.00109766,184.471,NaN
109736,24.2626,19.9997,0.0043747,739.128,0.00109367,184.782,NaN
109971,24.2546,19.9997,0.00436112,740.154,0.00109028,185.038,NaN
110207,24.2581,19.9999,0.00434742,741.182,0.00108685,185.295,NaN
110478,24.247,19.9998,0.00433122,742.356,0.0010828,185.589,NaN
110828,24.2523,19.9998,0.00431079,743.872,0.0010777,185.968,NaN
111156,24.266,19.9998,0.0042915,745.283,0.00107287,186.321,NaN
111450,24.2509,20.0001,0.00427411,746.54,0.00106853,186.635,NaN
111695,24.2402,19.9999,0.00426002,747.587,0.001065,186.897,NaN
111924,24.2483,19.9998,0.00424634,748.561,0.00106159,187.14,NaN
112180,24.2825,19.9999,0.00423122,749.646,0.00105781,187.412,NaN
112454,24.2399,19.9999,0.00421464,750.804,0.00105366,187.701,NaN
112688,24.2914,19.9998,0.00420067,751.785,0.00105017,187.946,NaN
112863,24.2785,19.9999,0.00419017,752.522,0.00104754,188.13,NaN
113147,24.2599,19.9996,0.00417336,753.71,0.00104334,188.428,NaN
113412,24.2797,19.9996,0.00415753,754.812,0.00103938,188.703,NaN
113712,24.2791,20.0003,0.00413962,756.055,0.0010349,189.014,NaN
113941,24.2596,19.9993,0.00412608,757.004,0.00103152,189.251,NaN
114200,24.3075,19.9991,0.00411052,758.068,0.00102763,189.517,NaN
114449,24.2882,19.9997,0.00409542,759.092,0.00102385,189.773,NaN
114704,24.2319,19.9997,0.00408018,760.133,0.00102004,190.033,NaN
114991,24.2626,19.9996,0.00406231,761.302,0.00101558,190.326,NaN
115240,24.2397,20.0001,0.00404741,762.312,0.00101185,190.578,NaN
115503,24.2495,19.9996,0.00403145,763.372,0.00100786,190.843,NaN
115718,24.2403,20.0003,0.00401817,764.24,0.00100454,191.06,NaN
115952,24.2606,19.9999,0.0040036,765.18,0.0010009,191.295,NaN
116141,24.2468,20.0002,0.00399176,765.932,0.00099794,191.483,NaN
116397,24.2242,20,0.00397628,766.952,0.000994069,191.738,NaN
116672,24.1945,19.9996,0.00395915,768.043,0.000989789,192.011,NaN
116893,24.211,19.9997,0.00394573,768.919,0.000986433,192.23,NaN
117237,24.2141,19.9999,0.00392389,770.271,0.000980972,192.568,NaN
117499,24.2051,20,0.0039078,771.296,0.000976951,192.824,NaN
117728,24.1983,19.9998,0.00389295,772.19,0.000973236,193.048,NaN
117951,24.1928,19.9997,0.00387886,773.059,0.000969716,193.265,NaN
118230,24.2049,20.0001,0.00386105,774.137,0.000965262,193.534,NaN
118506,24.2219,20,0.00384357,775.201,0.000960892,193.8,NaN
118769,24.1697,19.9996,0.00382676,776.208,0.000956691,194.052,NaN
119099,24.1748,19.9999,0.00380603,777.467,0.000951507,194.367,NaN
119386,24.1943,19.9999,0.00378772,778.557,0.000946929,194.639,NaN
119680,24.1966,19.9998,0.00376973,779.67,0.000942433,194.918,NaN
120080,24.1741,19.9996,0.00374401,781.173,0.000936003,195.293,NaN
120316,24.1816,19.9993,0.00372909,782.054,0.000932273,195.514,NaN
120586,24.1554,19.9994,0.00371228,783.058,0.000928071,195.765,NaN
120913,24.1657,20.0009,0.00369168,784.269,0.000922921,196.067,NaN
121310,24.166,20.0004,0.00366732,785.729,0.00091683,196.432,NaN
121552,24.1678,19.9997,0.00365191,786.616,0.000912977,196.654,NaN
121738,24.1484,19.9997,0.00364091,787.294,0.000910227,196.823,NaN
121936,24.19,19.9995,0.00362909,788.014,0.000907273,197.003,NaN
122174,24.1546,19.9997,0.00361483,788.874,0.000903706,197.219,NaN
122427,24.1641,19.9998,0.00359899,789.787,0.000899749,197.447,NaN
122699,24.1475,19.9998,0.00358288,790.764,0.000895719,197.691,NaN
122951,24.1787,19.9996,0.00356823,791.665,0.000892057,197.916,NaN
123187,24.1655,20.0003,0.00355388,792.505,0.000888469,198.126,NaN
123437,24.1491,19.9999,0.00353964,793.392,0.000884911,198.348,NaN
123632,24.1441,19.9998,0.00352822,794.08,0.000882055,198.52,NaN
123923,24.1566,19.9998,0.00351138,795.107,0.000877844,198.777,NaN
124161,24.1556,19.9998,0.00349769,795.94,0.000874424,198.985,NaN
124484,24.1471,20.0002,0.00347974,797.068,0.000869936,199.267,NaN
124698,24.1358,20.0001,0.00346778,797.81,0.000866946,199.452,NaN
124960,24.1146,19.9998,0.00345338,798.718,0.000863345,199.68,NaN
125197,24.169,19.9998,0.00344014,799.534,0.000860035,199.884,NaN
125481,24.1374,19.9998,0.00342521,800.509,0.000856303,200.127,NaN
125750,24.1308,20.0001,0.00341077,801.427,0.000852693,200.357,NaN
126038,24.1502,20.0003,0.00339613,802.41,0.000849031,200.603,NaN
126287,24.1461,19.9998,0.00338319,803.253,0.000845796,200.813,NaN
126610,24.111,20.0001,0.00336687,804.343,0.000841718,201.086,NaN
126919,24.1479,20.0001,0.00335143,805.381,0.000837858,201.345,NaN
127210,24.1528,19.999,0.00333741,806.353,0.000834353,201.588,NaN
127447,24.1591,19.9991,0.00332573,807.145,0.000831433,201.786,NaN
127688,24.1527,20.0003,0.00331397,807.945,0.000828493,201.986,NaN
127966,24.1364,20.0004,0.00330118,808.861,0.000825296,202.215,NaN
128273,24.1222,19.9999,0.0032865,809.873,0.000821626,202.468,NaN
128568,24.1641,19.9999,0.00327332,810.841,0.00081833,202.71,NaN
128866,24.1681,19.9999,0.00325983,811.815,0.000814957,202.954,NaN
129229,24.1329,20.0005,0.00324368,812.994,0.000810919,203.249,NaN
129496,24.1493,19.9997,0.00323209,813.86,0.000808022,203.465,NaN
129739,24.1477,19.9995,0.00322126,814.645,0.000805315,203.661,NaN
130059,24.1272,19.9999,0.00320721,815.674,0.000801803,203.918,NaN
130365,24.1571,19.9998,0.00319426,816.651,0.000798565,204.163,NaN
130641,24.1315,19.9999,0.00318278,817.532,0.000795694,204.383,NaN
130893,24.0793,19.9988,0.00317228,818.332,0.000793069,204.583,NaN
131126,24.1129,19.9994,0.00316261,819.072,0.000790654,204.768,NaN
131391,24.1116,19.9995,0.00315146,819.907,0.000787865,204.977,NaN
131628,24.104,20,0.00314209,820.654,0.000785522,205.164,NaN
131963,24.1156,20,0.00312841,821.704,0.000782103,205.426,NaN
132206,24.1304,19.9999,0.00311847,822.462,0.000779618,205.616,NaN
132476,24.102,19.9995,0.0031075,823.302,0.000776875,205.826,NaN
132705,24.133,19.9997,0.00309867,824.014,0.000774667,206.003,NaN
132919,24.1001,19.9999,0.00309018,824.675,0.000772545,206.169,NaN
133159,24.1174,19.9999,0.00308069,825.418,0.000770172,206.354,NaN
133422,24.1221,19.9996,0.00307069,826.225,0.000767673,206.556,NaN
133621,24.0981,19.9997,0.00306296,826.835,0.00076574,206.709,NaN
133863,24.1051,19.9998,0.00305347,827.577,0.000763366,206.894,NaN
134123,24.0963,20.0002,0.0030441,828.367,0.000761026,207.092,NaN
134392,24.099,19.9998,0.00303403,829.186,0.000758508,207.297,NaN
134729,24.0757,19.9995,0.0030213,830.206,0.000755325,207.551,NaN
135012,24.0697,20,0.00301076,831.06,0.00075269,207.765,NaN
135308,24.1077,20,0.00299983,831.947,0.000749957,207.987,NaN
135617,24.1019,19.9996,0.00298848,832.875,0.000747121,208.219,NaN
135886,24.083,19.9996,0.00297861,833.678,0.000744652,208.419,NaN
136141,24.079,19.9999,0.00296938,834.434,0.000742344,208.609,NaN
136397,24.1009,20,0.00296038,835.193,0.000740094,208.798,NaN
136639,24.0885,19.9996,0.00295198,835.908,0.000737994,208.977,NaN
136821,24.068,19.9996,0.00294533,836.446,0.000736332,209.111,NaN
137185,24.0706,20.0002,0.00293243,837.517,0.000733107,209.379,NaN
137388,24.0694,19.9998,0.00292535,838.11,0.000731338,209.528,NaN
137593,24.0885,20.0001,0.00291837,838.709,0.000729593,209.677,NaN
137860,24.0915,19.9997,0.00290928,839.486,0.00072732,209.872,NaN
138208,24.0804,19.9999,0.00289738,840.498,0.000724344,210.124,NaN
138510,24.0952,20.0002,0.00288725,841.372,0.000721813,210.343,NaN
138785,24.0531,19.9996,0.00287765,842.163,0.000719414,210.541,NaN
139055,24.0667,19.9998,0.00286817,842.939,0.000717043,210.735,NaN
139278,24.093,19.9998,0.00286117,843.579,0.000715292,210.895,NaN
139499,24.0771,19.9995,0.00285354,844.211,0.000713386,211.053,NaN
139791,24.0581,19.9995,0.00284443,845.041,0.000711108,211.26,NaN
140038,24.0636,19.9996,0.00283581,845.743,0.000708953,211.436,NaN
140322,24.0646,20.0001,0.00282672,846.548,0.00070668,211.637,NaN
140572,24.0712,19.9996,0.0028183,847.254,0.000704575,211.813,NaN
140781,24.0756,19.9997,0.00281163,847.84,0.000702907,211.96,NaN
141017,24.0678,19.9998,0.00280397,848.503,0.000700994,212.126,NaN
141246,24.0721,20,0.00279662,849.144,0.000699156,212.286,NaN
141529,24.0448,19.9994,0.0027876,849.936,0.0006969,212.484,NaN
141831,24.0759,19.9999,0.00277808,850.777,0.000694521,212.694,NaN
142055,24.0612,19.9998,0.00277095,851.399,0.000692739,212.85,NaN
142330,24.052,19.9998,0.00276244,852.159,0.000690609,213.04,NaN
142609,24.0453,19.9996,0.00275395,852.928,0.000688487,213.232,NaN
142864,24.1045,19.9999,0.00274641,853.628,0.000686602,213.407,NaN
143090,24.0351,19.9998,0.00273938,854.249,0.000684844,213.562,NaN
143269,24.0488,20.0001,0.00273398,854.739,0.000683495,213.685,NaN
143509,24.0417,19.9998,0.00272681,855.394,0.000681702,213.849,NaN
143710,24.0668,19.9994,0.00272134,855.942,0.000680334,213.986,NaN
144000,24.0128,19.9998,0.00271215,856.73,0.000678038,214.183,NaN
144216,24.031,19.9994,0.00270621,857.314,0.000676554,214.328,NaN
144468,24.034,19.9995,0.00269859,857.996,0.000674647,214.499,NaN
144719,24.0404,19.9993,0.00269159,858.673,0.000672898,214.668,NaN
144989,24.0452,20.0004,0.00268396,859.398,0.000670989,214.849,NaN
145285,23.9879,20.0001,0.00267539,860.192,0.000668847,215.048,NaN
145575,24.0342,19.9996,0.00266703,860.966,0.000666756,215.242,NaN
145842,24.0502,19.9996,0.00265979,861.676,0.000664946,215.419,NaN
146110,24.0419,19.9996,0.00265261,862.388,0.000663152,215.597,NaN
146367,24.0212,19.9997,0.0026457,863.071,0.000661425,215.768,NaN
146607,23.9997,19.9996,0.00263918,863.704,0.000659795,215.926,NaN
146866,24.0234,20,0.00263172,864.386,0.000657931,216.097,NaN
147110,24.0093,20.0001,0.00262501,865.029,0.000656252,216.257,NaN
147306,24.0235,19.9997,0.00261984,865.541,0.00065496,216.385,NaN
147607,24.0314,20.0003,0.00261167,866.328,0.000652917,216.582,NaN
147870,23.9889,19.9998,0.00260506,867.015,0.000651264,216.754,NaN
148147,24.0002,19.9998,0.00259846,867.737,0.000649616,216.934,NaN
148483,24.032,20,0.00258951,868.606,0.000647377,217.152,NaN
148748,24.0112,19.9998,0.00258244,869.293,0.000645611,217.323,NaN
149019,23.9848,19.9995,0.00257587,869.991,0.000643967,217.498,NaN
149382,24.0073,20.0002,0.00256705,870.925,0.000641762,217.731,NaN
149680,23.9771,19.9999,0.00255995,871.69,0.000639987,217.922,NaN
149910,24.0142,19.9998,0.00255396,872.276,0.000638489,218.069,NaN
150187,23.9937,19.9998,0.00254718,872.984,0.000636795,218.246,NaN
150511,23.995,19.9999,0.00253956,873.809,0.00063489,218.452,NaN
150731,23.9849,19.9997,0.00253436,874.365,0.000633589,218.591,NaN
150980,23.9846,19.9998,0.00252825,874.996,0.000632063,218.749,NaN
151225,24.0032,19.9997,0.00252288,875.615,0.00063072,218.904,NaN
151489,23.9671,19.9998,0.00251618,876.28,0.000629046,219.07,NaN
151706,23.9959,20,0.00251082,876.825,0.000627704,219.206,NaN
151912,23.9751,19.9995,0.0025062,877.341,0.000626549,219.335,NaN
152175,23.9846,19.9997,0.00250034,878.001,0.000625085,219.5,NaN
152470,23.9837,19.9999,0.00249309,878.737,0.000623273,219.684,NaN
152723,23.9995,19.9995,0.00248716,879.366,0.000621789,219.842,NaN
153045,24.002,20.0002,0.00247984,880.166,0.00061996,220.041,NaN
153307,23.9852,19.9997,0.00247429,880.815,0.000618573,220.204,NaN
153527,23.9362,20,0.00246945,881.36,0.000617362,220.34,NaN
153754,23.9779,19.9996,0.0024639,881.919,0.000615975,220.48,NaN
154060,23.936,19.9994,0.00245754,882.673,0.000614384,220.668,NaN
154300,23.9537,20,0.00245182,883.261,0.000612956,220.815,NaN
154698,23.9366,19.9996,0.00244353,884.235,0.000610883,221.059,NaN
154930,23.9667,19.9997,0.00243866,884.801,0.000609666,221.2,NaN
155221,23.9727,19.9997,0.00243254,885.51,0.000608134,221.377,NaN
155458,23.9593,19.9999,0.00242713,886.086,0.000606782,221.521,NaN
155704,23.9464,19.9997,0.00242223,886.684,0.000605557,221.671,NaN
156008,23.9498,19.9998,0.00241608,887.419,0.000604019,221.855,NaN
156311,23.943,19.9999,0.00240971,888.149,0.000602428,222.037,NaN
156526,24.0043,20,0.00240583,888.668,0.000601458,222.167,NaN
156794,23.9388,20,0.00240062,889.311,0.000600154,222.328,NaN
157062,23.9636,19.9999,0.0023951,889.955,0.000598776,222.489,NaN
157317,23.9664,20,0.00239017,890.563,0.000597541,222.641,NaN
157575,23.9463,19.9994,0.00238537,891.181,0.000596343,222.795,NaN
157897,23.9204,19.9996,0.0023785,891.946,0.000594624,222.987,NaN
158235,23.9425,19.9995,0.00237198,892.749,0.000592994,223.187,NaN
158510,23.9448,19.9996,0.00236731,893.403,0.000591827,223.351,NaN
158718,23.91,19.9996,0.0023632,893.893,0.000590801,223.473,NaN
159015,23.9227,20,0.00235764,894.593,0.00058941,223.648,NaN
159231,23.9669,20,0.00235313,895.103,0.000588283,223.776,NaN
159472,23.8783,19.9997,0.00234839,895.67,0.000587097,223.917,NaN
159695,23.883,19.9994,0.002344,896.193,0.000585999,224.048,NaN
159922,23.9108,20.0003,0.00234019,896.724,0.000585048,224.181,NaN
160199,23.8957,20,0.00233543,897.372,0.000583858,224.343,NaN
160420,23.9245,20.0001,0.00233144,897.889,0.00058286,224.472,NaN
160643,23.9119,19.9995,0.00232789,898.407,0.000581973,224.602,NaN
160953,23.9001,19.9999,0.00232217,899.129,0.000580542,224.782,NaN
161183,23.8889,19.9999,0.0023179,899.662,0.000579475,224.916,NaN
161412,23.9107,19.9999,0.00231421,900.193,0.000578552,225.048,NaN
161627,23.8868,19.9995,0.00231016,900.69,0.00057754,225.173,NaN
161907,23.8965,19.9994,0.00230569,901.335,0.000576423,225.334,NaN
162139,23.8992,19.9998,0.00230179,901.871,0.000575447,225.468,NaN
162453,23.8971,19.9994,0.00229668,902.593,0.000574169,225.648,NaN
162685,23.8529,19.9999,0.00229276,903.124,0.00057319,225.781,NaN
163008,23.8595,19.9998,0.0022872,903.865,0.000571799,225.966,NaN
163254,23.8969,20.0008,0.00228299,904.425,0.000570746,226.106,NaN
163521,23.8822,19.9999,0.00227816,905.035,0.00056954,226.259,NaN
163744,23.8749,19.9999,0.002275,905.543,0.000568749,226.386,NaN
164014,23.847,20.0001,0.00227037,906.156,0.000567594,226.539,NaN
164324,23.8702,20.0001,0.00226533,906.86,0.000566332,226.715,NaN
164596,23.8937,19.9997,0.00226101,907.474,0.000565254,226.869,NaN
164850,23.8743,19.9999,0.00225682,908.049,0.000564205,227.012,NaN
165219,23.8905,19.9996,0.00225166,908.881,0.000562915,227.22,NaN
165574,23.8567,19.9999,0.00224572,909.679,0.000561431,227.42,NaN
165849,23.8719,19.9996,0.00224177,910.297,0.000560441,227.574,NaN
166071,23.8701,19.9999,0.00223815,910.794,0.000559537,227.698,NaN
166407,23.8702,19.9998,0.00223267,911.545,0.000558167,227.886,NaN
166659,23.8243,19.9997,0.002229,912.107,0.00055725,228.027,NaN
166951,23.8425,19.9999,0.00222462,912.757,0.000556154,228.189,NaN
167262,23.8526,19.9996,0.00222015,913.448,0.000555037,228.362,NaN
167567,23.8546,19.9995,0.00221517,914.124,0.000553791,228.531,NaN
167740,23.8487,20,0.00221279,914.508,0.000553198,228.627,NaN
167974,23.831,19.9996,0.00220906,915.025,0.000552264,228.756,NaN
168182,23.8567,19.9997,0.00220656,915.484,0.00055164,228.871,NaN
168390,23.8306,19.9996,0.00220369,915.943,0.000550922,228.986,NaN
168606,23.831,19.9993,0.00220038,916.419,0.000550095,229.105,NaN
168871,23.854,20,0.00219698,917,0.000549246,229.25,NaN
169075,23.8396,19.9994,0.00219407,917.449,0.000548518,229.362,NaN
169297,23.848,19.9998,0.00219113,917.937,0.000547783,229.484,NaN
169539,23.8454,19.9998,0.00218728,918.464,0.00054682,229.616,NaN
169822,23.8453,19.9993,0.00218287,919.084,0.000545719,229.771,NaN
170094,23.8714,20.0001,0.00217953,919.677,0.000544883,229.919,NaN
170291,23.8758,19.9997,0.00217723,920.106,0.000544308,230.026,NaN
170505,23.8335,19.9998,0.0021746,920.571,0.000543651,230.143,NaN
170812,23.8608,19.9999,0.00217014,921.238,0.000542536,230.31,NaN
171076,23.8512,19.9998,0.00216703,921.811,0.000541757,230.453,NaN
171324,23.8773,20,0.00216352,922.348,0.00054088,230.587,NaN
171563,23.8741,19.9997,0.00216042,922.865,0.000540105,230.716,NaN
171815,23.9087,19.9999,0.00215753,923.409,0.000539382,230.852,NaN
172155,23.8756,19.9998,0.00215344,924.142,0.00053836,231.035,NaN
172433,23.8535,19.9998,0.00214949,924.74,0.000537372,231.185,NaN
172657,23.8731,20.0001,0.00214713,925.221,0.000536782,231.305,NaN
172915,23.8817,20,NaN,NaN,NaN,NaN,NaN
173254,23.8844,20.0001,NaN,NaN,NaN,NaN,NaN
173505,23.9157,20.0001,NaN,NaN,NaN,NaN,NaN
173841,23.9044,19.9996,NaN,NaN,NaN,NaN,NaN
174136,23.8824,19.9995,NaN,NaN,NaN,NaN,NaN
174439,23.9083,19.9995,NaN,NaN,NaN,NaN,NaN
174905,23.9143,19.9995,NaN,NaN,NaN,NaN,NaN
175294,23.8721,20.0001,NaN,NaN,NaN,NaN,NaN
175584,23.8758,19.9999,NaN,NaN,NaN,NaN,NaN
176069,23.9328,19.9999,NaN,NaN,NaN,NaN,NaN
176336,23.9241,19.9998,NaN,NaN,NaN,NaN,NaN
176808,23.9188,19.9998,NaN,NaN,NaN,NaN,NaN
177173,23.9244,20.0004,NaN,NaN,NaN,NaN,NaN
177524,23.944,20.0003,NaN,NaN,NaN,NaN,NaN
177856,23.9742,19.9998,NaN,NaN,NaN,NaN,NaN
178211,23.9558,19.9997,NaN,NaN,NaN,NaN,NaN
178557,23.959,19.9997,NaN,NaN,NaN,NaN,NaN
178813,23.972,19.9999,NaN,NaN,NaN,NaN,NaN
179157,23.9644,19.9999,NaN,NaN,NaN,NaN,NaN
179545,23.9666,20.0001,NaN,NaN,NaN,NaN,NaN
179866,23.929,20.0001,NaN,NaN,NaN,NaN,NaN
180181,23.9619,19.9995,NaN,NaN,NaN,NaN,NaN
180427,23.9488,19.9997,NaN,NaN,NaN,NaN,NaN
180720,23.9604,19.9999,NaN,NaN,NaN,NaN,NaN
180935,23.9702,19.9998,NaN,NaN,NaN,NaN,NaN
181268,23.9603,19.9995,NaN,NaN,NaN,NaN,NaN
181539,23.978,19.9997,NaN,NaN,NaN,NaN,NaN
181834,24.0021,19.9996,NaN,NaN,NaN,NaN,NaN
182136,24.0086,19.9998,NaN,NaN,NaN,NaN,NaN
182527,23.9976,19.9998,NaN,NaN,NaN,NaN,NaN
182859,24.0144,19.9998,NaN,NaN,NaN,NaN,NaN
183106,23.9821,19.9998,NaN,NaN,NaN,NaN,NaN
183553,24.0039,19.9998,NaN,NaN,NaN,NaN,NaN
183851,24.0328,20,NaN,NaN,NaN,NaN,NaN
184113,23.9864,19.9997,NaN,NaN,NaN,NaN,NaN
184483,23.9783,19.9995,NaN,NaN,NaN,NaN,NaN
184719,24.0064,19.9997,NaN,NaN,NaN,NaN,NaN
185063,24.0445,20.0006,NaN,NaN,NaN,NaN,NaN
185472,24.1426,19.9999,NaN,NaN,NaN,NaN,NaN
185727,24.1598,19.9997,NaN,NaN,NaN,NaN,NaN
185953,24.1632,19.9999,NaN,NaN,NaN,NaN,NaN