File: TAInstCalorimetry/DATA/myexp7.csv
Time,Temperature [AmbientT(Therm3T)],Temperature [Temperature],Heat flow [Signal],Heat [Signal],Normalized heat flow [Signal],Normalized heat [Signal],Time markers
0.0,24.474,20.0006,NaN,NaN,NaN,NaN,Reaction start
34.399,24.4724,20.0003,0.000411264,0.00237648,0.000102816,0.000594119,NaN
53.399,24.4893,20.0003,0.00382054,0.0362537,0.000955136,0.00906343,NaN
76.524,24.4837,20.0001,0.0118928,0.212938,0.00297319,0.0532345,NaN
106.399,24.5092,20.0003,0.0238276,0.747584,0.0059569,0.186896,NaN
135.399,24.4525,20,0.0338124,1.58855,0.00845309,0.397137,NaN
166.899,24.4776,20.0002,0.0421896,2.79193,0.0105474,0.697983,NaN
199.061,24.4676,20.0001,0.04845,4.25504,0.0121125,1.06376,NaN
234.649,24.4702,20.0001,0.053299,6.0711,0.0133247,1.51778,NaN
274.899,24.4852,20.0002,0.0568626,8.2938,0.0142157,2.07345,NaN
322.649,24.5381,19.9999,0.0592864,11.0731,0.0148216,2.76828,NaN
378.024,24.5259,20,0.060577,14.3974,0.0151442,3.59936,NaN
441.024,24.5512,20.0005,0.0609642,18.2302,0.015241,4.55755,NaN
496.899,24.5829,20.0002,0.0607212,21.6323,0.0151803,5.40807,NaN
548.46,24.6348,20.0001,0.0599101,24.7451,0.0149775,6.18627,NaN
605.586,24.5783,20.0001,0.0581542,28.1218,0.0145385,7.03045,NaN
665.024,24.6072,20.0002,0.0554679,31.5021,0.013867,7.87554,NaN
734.086,24.5868,20.0003,0.0516496,35.204,0.0129124,8.801,NaN
824.993,24.5561,20,0.0461868,39.6519,0.0115467,9.91297,NaN
897.711,24.5164,20,0.0418584,42.8526,0.0104646,10.7132,NaN
967.524,24.5443,19.9998,0.0379128,45.6357,0.0094782,11.4089,NaN
1048.09,24.5449,20,0.0337123,48.5182,0.00842807,12.1295,NaN
1146.4,24.525,19.9998,0.0291461,51.603,0.00728652,12.9007,NaN
1223.54,24.5424,19.9999,0.0259887,53.7272,0.00649719,13.4318,NaN
1309.91,24.5218,19.9999,0.0228701,55.8343,0.00571752,13.9586,NaN
1385.63,24.5417,19.9995,0.0204682,57.4729,0.00511706,14.3682,NaN
1483.02,24.523,19.9998,0.0177868,59.3325,0.0044467,14.8331,NaN
1574.97,24.5259,20.0001,0.015627,60.866,0.00390675,15.2165,NaN
1666.12,24.6429,19.9994,0.013792,62.2047,0.00344801,15.5512,NaN
1771.77,24.5607,19.9998,0.0119912,63.564,0.00299779,15.891,NaN
1866.87,24.5523,19.9999,0.0106242,64.6376,0.00265605,16.1594,NaN
1985.15,24.5582,19.9999,0.00920318,65.8074,0.0023008,16.4519,NaN
2114.03,24.547,19.9998,0.00794236,66.9095,0.00198559,16.7274,NaN
2264.56,24.5637,20,0.00676987,68.0131,0.00169247,17.0033,NaN
2385.68,24.5431,19.9995,0.00601152,68.7858,0.00150288,17.1964,NaN
2543.42,24.5662,20,0.00521642,69.6687,0.0013041,17.4172,NaN
2704.96,24.5594,19.9996,0.0045763,70.4577,0.00114407,17.6144,NaN
2863.44,24.548,19.9999,0.00407751,71.1418,0.00101938,17.7855,NaN
3005.4,24.5735,19.9997,0.00371414,71.6941,0.000928535,17.9235,NaN
3158.04,24.6011,19.9998,0.0033917,72.2356,0.000847924,18.0589,NaN
3334.99,24.5165,19.9999,0.00308707,72.8079,0.000771768,18.202,NaN
3537.46,24.5733,19.9998,0.00280837,73.4037,0.000702092,18.3509,NaN
3713.59,24.5643,19.9998,0.00261181,73.8805,0.000652954,18.4701,NaN
3913.64,24.5572,19.9994,0.00242749,74.3839,0.000606874,18.596,NaN
4085.27,24.5804,19.9996,0.002295,74.7889,0.000573751,18.6972,NaN
4255.3,24.5675,20,0.0021823,75.1692,0.000545576,18.7923,NaN
4467.77,24.5864,19.9999,0.00206191,75.6198,0.000515477,18.905,NaN
4656.73,24.5654,20.0004,0.00197067,76.0005,0.000492666,19.0001,NaN
4860.37,24.5626,20,0.0018858,76.393,0.000471449,19.0983,NaN
5080.9,24.5813,19.9997,0.00180705,76.7999,0.000451763,19.2,NaN
5344.27,24.6118,19.9998,0.00172743,77.265,0.000431858,19.3163,NaN
5556.91,24.5966,20.0001,0.00167321,77.6265,0.000418301,19.4066,NaN
5763.81,24.6106,19.9997,0.00162744,77.9678,0.00040686,19.492,NaN
6052.67,24.6171,19.9999,0.00157335,78.4298,0.000393337,19.6075,NaN
6290.9,24.5754,19.9996,0.00153665,78.8001,0.000384163,19.7,NaN
6517.98,24.613,19.9999,0.00150782,79.1457,0.000376954,19.7864,NaN
6722.41,24.5672,20.0002,0.00148602,79.4517,0.000371505,19.8629,NaN
6980.4,24.6358,20,0.00146407,79.8321,0.000366017,19.958,NaN
7182.72,24.5753,19.9995,0.00145061,80.1269,0.000362653,20.0317,NaN
7386.8,24.6188,19.9997,0.00144,80.4218,0.00036,20.1055,NaN
7600.95,24.6176,20,0.00143176,80.7292,0.00035794,20.1823,NaN
7915.29,24.6016,19.9998,0.00142419,81.1779,0.000356047,20.2945,NaN
8182.71,24.643,20.0001,0.00142047,81.5583,0.000355116,20.3896,NaN
8405.24,24.6451,19.9997,0.00141849,81.8742,0.000354622,20.4685,NaN
8593.2,24.5631,19.9997,0.00141538,82.1405,0.000353845,20.5351,NaN
8799.36,24.6426,20.0001,0.00141318,82.4319,0.000353294,20.608,NaN
9025.82,24.6198,19.9998,0.00142205,82.7526,0.000355513,20.6882,NaN
9255.59,24.6418,19.9997,0.00145133,83.0824,0.000362834,20.7706,NaN
9482.36,24.6181,20,0.00149721,83.4165,0.000374302,20.8541,NaN
9722.23,24.6554,19.9996,0.00155618,83.7825,0.000389044,20.9456,NaN
10001.2,24.6557,20,0.00162748,84.2268,0.000406871,21.0567,NaN
10274.9,24.5788,20,0.0016949,84.6819,0.000423726,21.1705,NaN
10543.7,24.5976,19.9998,0.00175745,85.1455,0.000439363,21.2864,NaN
10787.8,24.6471,20,0.0018106,85.581,0.00045265,21.3952,NaN
11077.9,24.625,20,0.00187103,86.1151,0.000467756,21.5288,NaN
11326.7,24.6178,20.0003,0.0019219,86.587,0.000480474,21.6468,NaN
11567.6,24.6161,20.0003,0.0019705,87.0557,0.000492624,21.7639,NaN
11790.7,24.6542,19.999,0.00201523,87.5004,0.000503808,21.8751,NaN
12053.2,24.611,19.9995,0.00206825,88.037,0.000517063,22.0092,NaN
12301.3,24.6295,19.9999,0.00211876,88.5558,0.00052969,22.139,NaN
12515.7,24.6049,19.9997,0.0021634,89.0149,0.000540851,22.2537,NaN
12756.4,24.6164,19.9999,0.00221391,89.5416,0.000553478,22.3854,NaN
12963.7,24.651,19.9998,0.00225835,90.0052,0.000564587,22.5013,NaN
13186.4,24.5864,19.9997,0.00230641,90.5135,0.000576604,22.6284,NaN
13367.1,24.6544,20,0.00234554,90.9337,0.000586386,22.7334,NaN
13643.6,24.625,19.9997,0.00240718,91.5908,0.000601795,22.8977,NaN
13828.7,24.6392,19.9999,0.00244867,92.0402,0.000612167,23.01,NaN
14074.5,24.6345,19.9998,0.00250435,92.649,0.000626087,23.1623,NaN
14270.5,24.6473,19.9998,0.00254948,93.1442,0.000637371,23.286,NaN
14567.8,24.6463,19.9999,0.002619,93.9126,0.000654749,23.4781,NaN
14819.1,24.6088,20,0.00267853,94.5783,0.000669634,23.6446,NaN
15036.7,24.6185,19.9994,0.00273038,95.1665,0.000682594,23.7916,NaN
15236.3,24.6558,19.9999,0.00277892,95.7164,0.000694729,23.9291,NaN
15524.9,24.5736,19.9997,0.00284998,96.5287,0.000712495,24.1322,NaN
15708.7,24.6332,19.9993,0.00289545,97.0566,0.000723863,24.2641,NaN
15902,24.6571,20,0.0029439,97.621,0.000735976,24.4053,NaN
16095.6,24.6483,19.9995,0.00299277,98.1956,0.000748193,24.5489,NaN
16366.6,24.6284,19.9996,0.00306167,99.0159,0.000765417,24.754,NaN
16575.9,24.6334,20,0.00311566,99.6624,0.000778914,24.9156,NaN
16909.5,24.6318,19.9998,0.00320278,100.716,0.000800695,25.1791,NaN
17153.3,24.6663,19.9999,0.00326747,101.505,0.000816868,25.3763,NaN
17384.9,24.6675,19.9994,0.00332966,102.269,0.000832415,25.5673,NaN
17567.9,24.6285,20,0.00337902,102.883,0.000844756,25.7208,NaN
17808.7,24.6365,19.9996,0.00344462,103.705,0.000861155,25.9261,NaN
18014.3,24.6173,19.9996,0.00350086,104.418,0.000875215,26.1046,NaN
18260.7,24.6486,19.9999,0.00356879,105.289,0.000892199,26.3224,NaN
18468.8,24.643,19.9998,0.00362654,106.038,0.000906636,26.5095,NaN
18712.1,24.6673,19.9998,0.00369459,106.929,0.000923647,26.7322,NaN
18960.6,24.6544,19.9997,0.00376483,107.855,0.000941208,26.9638,NaN
19204.3,24.6391,19.9999,0.00383402,108.781,0.000958504,27.1953,NaN
19422.1,24.6643,19.9993,0.00389635,109.623,0.000974086,27.4058,NaN
19640.5,24.6521,19.9999,0.00395913,110.481,0.000989782,27.6203,NaN
19883,24.6687,20.0003,0.00402942,111.449,0.00100736,27.8623,NaN
20077.6,24.6554,20.0005,0.00408604,112.239,0.00102151,28.0598,NaN
20386.3,24.6696,19.9996,0.00417673,113.514,0.00104418,28.3786,NaN
20550.5,24.6502,19.9999,0.0042253,114.205,0.00105633,28.5512,NaN
20800.7,24.6913,20.0002,0.00429916,115.271,0.00107479,28.8176,NaN
20974.4,24.7031,19.9996,0.00435062,116.022,0.00108765,29.0055,NaN
21219.8,24.7098,20,0.00442384,117.098,0.00110596,29.2746,NaN
21484.9,24.6963,19.9996,0.00450311,118.282,0.00112578,29.5705,NaN
21765.3,24.6919,19.9992,0.00458724,119.557,0.00114681,29.8891,NaN
22076.1,24.643,19.9995,0.00468169,120.997,0.00117042,30.2492,NaN
22322.8,24.6691,19.9998,0.00475675,122.161,0.00118919,30.5403,NaN
22516.6,24.6966,19.9996,0.00481581,123.088,0.00120395,30.7721,NaN
22736,24.6571,19.9998,0.00488345,124.153,0.00122086,31.0381,NaN
22998,24.6714,19.9998,0.00496411,125.443,0.00124103,31.3607,NaN
23224.4,24.6871,20.0001,0.00503358,126.574,0.0012584,31.6435,NaN
23423.5,24.6934,19.9998,0.00509489,127.583,0.00127372,31.8957,NaN
23645.4,24.7462,19.9999,0.00516255,128.721,0.00129064,32.1802,NaN
23876.8,24.656,19.9998,0.00523418,129.924,0.00130855,32.4809,NaN
24170.5,24.6697,20,0.00532397,131.475,0.00133099,32.8687,NaN
24527.3,24.6898,19.9996,0.00543297,133.393,0.00135824,33.3482,NaN
24819.4,24.6951,20.0003,0.00552207,134.993,0.00138052,33.7483,NaN
25078.5,24.7226,19.9996,0.00560061,136.434,0.00140015,34.1085,NaN
25377,24.7041,20,0.00569126,138.119,0.00142282,34.5298,NaN
25642.8,24.6969,19.9995,0.0057711,139.643,0.00144278,34.9107,NaN
25862.4,24.7295,19.9993,0.00583669,140.918,0.00145917,35.2294,NaN
26046.7,24.7597,19.9992,0.00589204,141.998,0.00147301,35.4996,NaN
26306.4,24.7226,20,0.00596971,143.538,0.00149243,35.8845,NaN
26586.3,24.7139,19.9997,0.00605213,145.221,0.00151303,36.3053,NaN
26768.6,24.7081,19.9998,0.00610566,146.329,0.00152642,36.5822,NaN
27108.2,24.7161,19.9998,0.00620491,148.419,0.00155123,37.1048,NaN
27330,24.6969,19.9999,0.00626841,149.803,0.0015671,37.4506,NaN
27547.7,24.7263,20.0001,0.0063312,151.174,0.0015828,37.7935,NaN
27775.2,24.7401,20,0.00639592,152.622,0.00159898,38.1555,NaN
28003.5,24.7233,20,0.00646028,154.089,0.00161507,38.5223,NaN
28224.7,24.7247,19.9994,0.00652157,155.525,0.00163039,38.8813,NaN
28433.4,24.7181,20,0.00657891,156.892,0.00164473,39.2231,NaN
28690.9,24.7287,19.9993,0.00664873,158.595,0.00166218,39.6488,NaN
28969.2,24.7253,19.9996,0.00672297,160.456,0.00168074,40.114,NaN
29319.2,24.7347,19.9999,0.00681603,162.825,0.00170401,40.7063,NaN
29579.3,24.7616,20.0004,0.00688338,164.607,0.00172084,41.1518,NaN
29790.3,24.6902,20.0001,0.00693753,166.065,0.00173438,41.5163,NaN
30078.2,24.6868,19.9996,0.00701034,168.073,0.00175258,42.0182,NaN
30309.4,24.6883,19.9993,0.00706734,169.7,0.00176683,42.425,NaN
30561.3,24.6675,19.9995,0.00712778,171.488,0.00178195,42.872,NaN
30840.5,24.682,19.9992,0.00719335,173.488,0.00179834,43.372,NaN
31060.7,24.6562,19.9998,0.00724357,175.077,0.00181089,43.7693,NaN
31310.4,24.6225,19.9996,0.00729947,176.893,0.00182487,44.2231,NaN
31495.8,24.6601,19.9996,0.00734011,178.25,0.00183503,44.5625,NaN
31736.3,24.5936,19.9997,0.00739204,180.021,0.00184801,45.0053,NaN
31986.8,24.5827,19.9996,0.00744416,181.88,0.00186104,45.4699,NaN
32200.8,24.5755,19.9999,0.00748851,183.478,0.00187213,45.8694,NaN
32432.6,24.5754,19.9997,0.00753545,185.219,0.00188386,46.3048,NaN
32690.6,24.5747,20,0.0075858,187.17,0.00189645,46.7925,NaN
32945.1,24.5712,19.9997,0.00763455,189.106,0.00190864,47.2765,NaN
33159.6,24.5448,19.9999,0.0076747,190.748,0.00191868,47.687,NaN
33383,24.5824,19.9997,0.00771584,192.468,0.00192896,48.1169,NaN
33722.8,24.5329,20.0003,0.00777602,195.1,0.001944,48.7749,NaN
33936.3,24.5483,20.0001,0.00781268,196.763,0.00195317,49.1908,NaN
34194.9,24.5668,19.9999,0.00785587,198.79,0.00196397,49.6975,NaN
34461.2,24.5269,19.9998,0.00789893,200.887,0.00197473,50.2219,NaN
34711.3,24.5454,19.9997,0.00793707,202.868,0.00198427,50.7169,NaN
34916.7,24.5087,19.9997,0.00796844,204.501,0.00199211,51.1253,NaN
35174.5,24.5142,20.0001,0.00800648,206.561,0.00200162,51.6402,NaN
35371.2,24.5465,19.9999,0.00803433,208.138,0.00200858,52.0345,NaN
35603.3,24.5169,19.9998,0.00806614,210.007,0.00201654,52.5017,NaN
35800.3,24.5287,19.9992,0.00809249,211.598,0.00202312,52.8995,NaN
36019.5,24.5165,20,0.00812011,213.375,0.00203003,53.3438,NaN
36260.6,24.4845,19.9998,0.00815003,215.337,0.00203751,53.8342,NaN
36549.4,24.4274,20.0001,0.00818401,217.695,0.002046,54.4238,NaN
36797.4,24.4729,19.9991,0.00821193,219.728,0.00205298,54.9321,NaN
37060.6,24.4679,19.9998,0.00824009,221.894,0.00206002,55.4734,NaN
37327.5,24.4777,19.9998,0.00826749,224.096,0.00206687,56.0241,NaN
37657.6,24.4706,19.9999,0.00829912,226.831,0.00207478,56.7077,NaN
37920.8,24.4682,20.0001,0.00832261,229.018,0.00208065,57.2545,NaN
38138.1,24.4782,19.9998,0.00834125,230.829,0.00208531,57.7072,NaN
38392.5,24.4514,20,0.00836169,232.954,0.00209042,58.2384,NaN
38630.8,24.4574,19.9998,0.00837956,234.948,0.00209489,58.7371,NaN
38878.7,24.45,19.9995,0.00839682,237.028,0.00209921,59.257,NaN
39082.8,24.4187,20.0001,0.00841005,238.743,0.00210251,59.6856,NaN
39356.4,24.4586,19.9999,0.00842684,241.046,0.00210671,60.2616,NaN
39550.2,24.4521,20.0002,0.00843766,242.68,0.00210942,60.6701,NaN
39793,24.455,19.9997,0.0084502,244.73,0.00211255,61.1826,NaN
40049.5,24.4571,19.9998,0.00846225,246.899,0.00211556,61.7248,NaN
40276.6,24.4489,19.9993,0.00847139,248.823,0.00211785,62.2057,NaN
40546.8,24.4288,19.9997,0.00848126,251.113,0.00212031,62.7782,NaN
40745.2,24.4413,19.9999,0.00848798,252.796,0.002122,63.199,NaN
40992.7,24.4272,20.0004,0.00849529,254.898,0.00212382,63.7245,NaN
41229.8,24.4454,19.9999,0.0085008,256.913,0.0021252,64.2283,NaN
41417.1,24.4439,19.9999,0.0085046,258.506,0.00212615,64.6264,NaN
41636.4,24.4324,19.9997,0.00850824,260.371,0.00212706,65.0927,NaN
41907.4,24.4098,19.9983,0.0085119,262.677,0.00212797,65.6693,NaN
42139.3,24.4319,19.9996,0.0085142,264.651,0.00212855,66.1628,NaN
42362.3,24.3816,19.9999,0.00851537,266.55,0.00212884,66.6376,NaN
42600.3,24.4177,19.9998,0.00851559,268.577,0.0021289,67.1441,NaN
42884,24.4112,19.9998,0.00851529,270.993,0.00212882,67.7482,NaN
43143.9,24.3827,19.9998,0.00851398,273.206,0.0021285,68.3014,NaN
43390.5,24.4143,19.9994,0.00851167,275.305,0.00212792,68.8263,NaN
43592.9,24.3964,19.9998,0.00850894,277.027,0.00212723,69.2568,NaN
43831.8,24.4095,20,0.00850544,279.06,0.00212636,69.765,NaN
44033.2,24.3795,19.9997,0.00850176,280.773,0.00212544,70.1932,NaN
44341.8,24.3716,20.0001,0.00849526,283.395,0.00212382,70.8488,NaN
44546.7,24.3714,19.9995,0.00849015,285.135,0.00212254,71.2838,NaN
44817.1,24.3563,20,0.00848283,287.43,0.00212071,71.8576,NaN
45077.6,24.3842,19.9995,0.00847552,289.639,0.00211888,72.4098,NaN
45315.8,24.3594,20,0.00846732,291.657,0.00211683,72.9142,NaN
45535.9,24.3711,19.9997,0.0084596,293.52,0.0021149,73.38,NaN
45785,24.3308,19.9994,0.00845039,295.626,0.0021126,73.9065,NaN
45999.5,24.3516,20.0001,0.00844209,297.438,0.00211052,74.3594,NaN
46310.7,24.374,20.0003,0.00842898,300.063,0.00210724,75.0157,NaN
46539.2,24.3674,20.0003,0.00841899,301.988,0.00210475,75.497,NaN
46849.3,24.38,19.9999,0.00840501,304.596,0.00210125,76.149,NaN
47150.5,24.3312,19.9996,0.0083909,307.125,0.00209772,76.7814,NaN
47362.4,24.3517,20.0003,0.00838047,308.902,0.00209512,77.2256,NaN
47562.8,24.3168,19.9995,0.00837036,310.581,0.00209259,77.6452,NaN
47762.4,24.3395,19.9994,0.00836056,312.251,0.00209014,78.0627,NaN
47926.3,24.3347,20,0.00835245,313.62,0.00208811,78.405,NaN
48194.1,24.3517,19.9993,0.00833874,315.855,0.00208469,78.9638,NaN
48448.3,24.3384,19.9998,0.00832604,317.974,0.00208151,79.4934,NaN
48717.6,24.3243,19.9996,0.00831341,320.214,0.00207835,80.0535,NaN
48902.6,24.3183,19.9999,0.00830443,321.752,0.00207611,80.4379,NaN
49195.1,24.3396,19.9999,0.00829176,324.179,0.00207294,81.0447,NaN
49402.1,24.3319,19.9997,0.0082839,325.894,0.00207097,81.4734,NaN
49652.8,24.3119,20,0.00827617,327.97,0.00206904,81.9924,NaN
49870.7,24.3508,19.9997,0.00827131,329.773,0.00206783,82.4432,NaN
50115.2,24.3105,19.9999,0.00826807,331.795,0.00206702,82.9487,NaN
50351,24.3037,19.9994,0.00826901,333.744,0.00206725,83.436,NaN
50583.6,24.3124,19.9995,0.00827448,335.668,0.00206862,83.9169,NaN
50793.2,24.2874,19.9998,0.00828293,337.403,0.00207073,84.3507,NaN
51027.4,24.2971,19.9995,0.00829673,339.344,0.00207418,84.8361,NaN
51448,24.2957,19.9998,0.00833114,342.841,0.00208279,85.7103,NaN
51649.3,24.2935,19.9998,0.00834899,344.52,0.00208725,86.1299,NaN
51848.2,24.2886,20.0004,0.00836565,346.182,0.00209141,86.5456,NaN
52087.8,24.2956,20.0001,0.00838431,348.189,0.00209608,87.0473,NaN
52420.1,24.2958,19.9998,0.00840476,350.979,0.00210119,87.7446,NaN
52700.1,24.2878,20.0002,0.00841761,353.334,0.0021044,88.3335,NaN
52898,24.2916,19.9996,0.0084246,355.001,0.00210615,88.7502,NaN
53123.4,24.2958,20.0002,0.00843095,356.9,0.00210774,89.225,NaN
53409.1,24.272,19.9997,0.0084362,359.309,0.00210905,89.8273,NaN
53679.3,24.2847,19.9999,0.00844019,361.589,0.00211005,90.3973,NaN
53867.5,24.2983,20.0002,0.00844188,363.178,0.00211047,90.7945,NaN
54094.8,24.2933,19.9992,0.00844261,365.098,0.00211065,91.2744,NaN
54326.4,24.2883,20.0006,0.00844202,367.053,0.00211051,91.7632,NaN
54542.8,24.2893,19.9997,0.00844041,368.879,0.0021101,92.2199,NaN
54826.5,24.2885,19.9997,0.00843642,371.273,0.00210911,92.8183,NaN
55016.6,24.2664,20.0001,0.00843219,372.877,0.00210805,93.2192,NaN
55209.5,24.2803,20.0001,0.00842703,374.503,0.00210676,93.6256,NaN
55459.9,24.2916,19.9996,0.00841877,376.612,0.00210469,94.1531,NaN
55707.9,24.2393,19.9996,0.00840908,378.699,0.00210227,94.6746,NaN
55945.9,24.2761,20.0002,0.00839829,380.698,0.00209957,95.1746,NaN
56177.7,24.2205,19.9996,0.00838736,382.644,0.00209684,95.6611,NaN
56426.1,24.2549,19.9995,0.00837359,384.725,0.0020934,96.1813,NaN
56664.3,24.2767,19.9999,0.00835937,386.718,0.00208984,96.6796,NaN
56926.4,24.2781,19.9999,0.00834273,388.907,0.00208568,97.2268,NaN
57260.6,24.289,19.9995,0.00831928,391.692,0.00207982,97.9229,NaN
57493.5,24.251,19.9995,0.00830217,393.627,0.00207554,98.4068,NaN
57692.8,24.263,19.9999,0.00828657,395.281,0.00207164,98.8202,NaN
57958,24.274,19.9998,0.00826489,397.476,0.00206622,99.3689,NaN
58175.7,24.2648,19.9998,0.0082462,399.273,0.00206155,99.8181,NaN
58411.9,24.2461,19.9998,0.00822531,401.218,0.00205633,100.304,NaN
58664.2,24.2816,20.0002,0.00820208,403.29,0.00205052,100.822,NaN
58865.5,24.2631,19.9997,0.00818325,404.939,0.00204581,101.235,NaN
59149.9,24.266,19.9999,0.00815596,407.263,0.00203899,101.816,NaN
59385.6,24.2388,19.9994,0.00813226,409.182,0.00203306,102.296,NaN
59648,24.2575,20.0003,0.00810507,411.313,0.00202627,102.828,NaN
59904.1,24.2465,19.9999,0.00807838,413.385,0.0020196,103.346,NaN
60164.7,24.2808,20,0.00805014,415.487,0.00201253,103.872,NaN
60376.2,24.2493,19.9998,0.00802683,417.187,0.00200671,104.297,NaN
60630.4,24.2324,20.0003,0.00799832,419.223,0.00199958,104.806,NaN
60889.6,24.2317,20,0.00796938,421.293,0.00199235,105.323,NaN
61098.2,24.2535,19.9997,0.00794538,422.953,0.00198634,105.738,NaN
61302.4,24.2505,20.0001,0.00792138,424.573,0.00198034,106.143,NaN
61502.9,24.2313,20,0.00789798,426.159,0.00197449,106.54,NaN
61778.7,24.2546,20,0.00786549,428.333,0.00196637,107.083,NaN
61998.6,24.2362,19.9994,0.00783919,430.059,0.0019598,107.515,NaN
62262.7,24.2459,19.9996,0.00780739,432.125,0.00195185,108.031,NaN
62553.5,24.249,19.9999,0.00777224,434.391,0.00194306,108.598,NaN
62805.1,24.2689,20,0.00774178,436.342,0.00193544,109.086,NaN
63081.5,24.2472,20,0.00770775,438.477,0.00192694,109.619,NaN
63372.2,24.2375,20,0.00767196,440.713,0.00191799,110.178,NaN
63603,24.2228,19.9999,0.00764341,442.48,0.00191085,110.62,NaN
63910.2,24.2347,20,0.00760616,444.822,0.00190154,111.206,NaN
64158.6,24.2099,19.9999,0.00757581,446.708,0.00189395,111.677,NaN
64397.8,24.238,19.9996,0.0075463,448.517,0.00188657,112.129,NaN
64683,24.2164,20.0004,0.00751102,450.664,0.00187775,112.666,NaN
64866.3,24.2307,19.9997,0.00748841,452.039,0.0018721,113.01,NaN
65099.6,24.2263,19.9996,0.00745921,453.782,0.0018648,113.445,NaN
65323.6,24.2234,19.9997,0.00743108,455.45,0.00185777,113.863,NaN
65525.2,24.1966,19.9996,0.00740616,456.945,0.00185154,114.236,NaN
65772.1,24.2031,19.9999,0.00737554,458.771,0.00184388,114.693,NaN
66008.2,24.2161,19.9996,0.00734625,460.508,0.00183656,115.127,NaN
66265.6,24.2162,19.9997,0.00731474,462.395,0.00182869,115.599,NaN
66484,24.2084,20.0003,0.0072875,463.989,0.00182188,115.997,NaN
66703.5,24.2064,19.9996,0.00726028,465.586,0.00181507,116.397,NaN
66885.9,24.1819,20.0001,0.00723811,466.909,0.00180953,116.727,NaN
67088,24.2266,19.9995,0.00721345,468.369,0.00180336,117.092,NaN
67290.3,24.2077,19.9997,0.00718889,469.826,0.00179722,117.456,NaN
67530.6,24.1999,20,0.00715992,471.55,0.00178998,117.888,NaN
67801.3,24.1997,19.9994,0.00712689,473.483,0.00178172,118.371,NaN
68008.8,24.2468,19.9996,0.00710231,474.96,0.00177558,118.74,NaN
68266.6,24.208,19.9994,0.00707107,476.787,0.00176777,119.197,NaN
68493.3,24.1869,19.9997,0.00704437,478.387,0.00176109,119.597,NaN
68747.9,24.1756,19.9995,0.00701395,480.176,0.00175349,120.044,NaN
69037,24.1786,19.9996,0.00697992,482.199,0.00174498,120.55,NaN
69252.2,24.2074,19.9999,0.0069548,483.699,0.0017387,120.925,NaN
69461.5,24.1768,20,0.00693035,485.151,0.00173259,121.288,NaN
69686.9,24.1685,19.9999,0.00690432,486.711,0.00172608,121.678,NaN
69901.2,24.1946,19.9997,0.00687981,488.188,0.00171995,122.047,NaN
70110.1,24.2253,19.9995,0.00685557,489.623,0.00171389,122.406,NaN
70365.8,24.1913,20,0.00682656,491.372,0.00170664,122.843,NaN
70707.8,24.1792,19.9999,0.00678781,493.7,0.00169695,123.425,NaN
70968.7,24.2,19.9999,0.00675855,495.467,0.00168964,123.867,NaN
71187.6,24.1811,19.9996,0.0067342,496.944,0.00168355,124.236,NaN
71409.5,24.1926,19.9997,0.00670929,498.435,0.00167732,124.609,NaN
71595.8,24.1947,19.9997,0.00668875,499.683,0.00167219,124.921,NaN
71786.8,24.1515,19.9996,0.0066672,500.959,0.0016668,125.24,NaN
72024.6,24.1539,20,0.00664128,502.541,0.00166032,125.635,NaN
72258,24.1937,19.9996,0.00661608,504.088,0.00165402,126.022,NaN
72526.1,24.1417,19.9998,0.00658659,505.858,0.00164665,126.464,NaN
72784.5,24.1452,19.9999,0.00655928,507.556,0.00163982,126.889,NaN
72995,24.1779,19.9996,0.00653674,508.935,0.00163418,127.234,NaN
73217.1,24.1692,20,0.00651315,510.384,0.00162829,127.596,NaN
73475.9,24.1511,19.9995,0.0064866,512.066,0.00162165,128.016,NaN
73705.2,24.1556,20,0.00646278,513.55,0.00161569,128.388,NaN
73973.1,24.1586,19.9994,0.00643504,515.279,0.00160876,128.82,NaN
74204.8,24.1447,20.0003,0.00641095,516.766,0.00160274,129.192,NaN
74432.3,24.1578,19.9999,0.00638795,518.223,0.00159699,129.556,NaN
74640.8,24.1774,19.9998,0.00636666,519.552,0.00159166,129.888,NaN
74849.3,24.1284,20.0003,0.00634525,520.877,0.00158631,130.219,NaN
75071.3,24.1331,20,0.00632316,522.283,0.00158079,130.571,NaN
75302.1,24.1456,19.9999,0.00630024,523.74,0.00157506,130.935,NaN
75480.8,24.1216,20,0.00628193,524.865,0.00157048,131.216,NaN
75771.9,24.1217,19.9997,0.00625323,526.689,0.00156331,131.672,NaN
75981.8,24.1346,20,0.00623232,527.999,0.00155808,132,NaN
76198.9,24.1567,20,0.00621114,529.35,0.00155278,132.337,NaN
76396.2,24.1432,19.9996,0.00619157,530.574,0.00154789,132.643,NaN
76648.4,24.1409,19.9997,0.00616712,532.132,0.00154178,133.033,NaN
76844.8,24.1541,19.9995,0.00614814,533.341,0.00153703,133.335,NaN
77045.7,24.1449,20.0003,0.00612922,534.575,0.0015323,133.644,NaN
77264.6,24.1309,19.9998,0.00610826,535.914,0.00152706,133.979,NaN
77479.4,24.1108,19.9997,0.00608834,537.224,0.00152208,134.306,NaN
77759.1,24.1966,19.9999,0.00606231,538.923,0.00151558,134.731,NaN
77988.3,24.1089,19.9993,0.00604111,540.31,0.00151028,135.077,NaN
78246,24.1221,20,0.0060173,541.864,0.00150433,135.466,NaN
78510.9,24.1033,19.9996,0.00599227,543.454,0.00149807,135.864,NaN
78738.6,24.1302,19.9998,0.00597155,544.817,0.00149289,136.204,NaN
79008.6,24.1418,19.9998,0.00594717,546.426,0.00148679,136.606,NaN
79220.6,24.1372,20.0001,0.00592816,547.684,0.00148204,136.921,NaN
79447.2,24.1194,19.9998,0.0059075,549.025,0.00147688,137.256,NaN
79804.1,24.118,19.9996,0.0058751,551.128,0.00146878,137.782,NaN
80029.3,24.1037,19.9995,0.0058549,552.449,0.00146372,138.112,NaN
80276.5,24.1255,19.9998,0.00583247,553.893,0.00145812,138.473,NaN
80485.7,24.1337,19.9998,0.00581372,555.111,0.00145343,138.778,NaN
80688.3,24.1127,19.9996,0.00579574,556.288,0.00144893,139.072,NaN
80902.8,24.1306,19.9999,0.00577675,557.528,0.00144419,139.382,NaN
81134.4,24.1324,19.9999,0.00575622,558.864,0.00143905,139.716,NaN
81333.7,24.1367,20,0.00573875,560.01,0.00143469,140.002,NaN
81559.5,24.1206,19.9995,0.00571873,561.303,0.00142968,140.326,NaN
81767.8,24.1234,19.9996,0.00570043,562.492,0.00142511,140.623,NaN
81978.5,24.1084,20,0.00568215,563.691,0.00142054,140.923,NaN
82212.4,24.1306,20,0.00566174,565.018,0.00141543,141.255,NaN
82456.1,24.1032,20.0002,0.00564081,566.396,0.0014102,141.599,NaN
82667.1,24.1242,19.9995,0.00562299,567.584,0.00140575,141.896,NaN
82904.9,24.1282,19.9998,0.00560237,568.919,0.00140059,142.23,NaN
83129.2,24.1075,19.9995,0.00558278,570.173,0.0013957,142.543,NaN
83386.4,24.145,19.9998,0.0055611,571.606,0.00139028,142.901,NaN
83585.3,24.152,19.9998,0.00554415,572.711,0.00138604,143.178,NaN
83815.6,24.1511,19.9999,0.00552465,573.985,0.00138116,143.496,NaN
84078.3,24.1675,19.9995,0.00550234,575.433,0.00137559,143.858,NaN
84301.4,24.182,19.9997,0.00548354,576.659,0.00137088,144.165,NaN
84521.5,24.1083,19.9998,0.00546547,577.864,0.00136637,144.466,NaN
84791.6,24.1421,20.0001,0.00544289,579.337,0.00136072,144.834,NaN
85038.6,24.1133,19.9999,0.00542246,580.679,0.00135561,145.17,NaN
85235.9,24.1538,19.9995,0.00540606,581.747,0.00135151,145.437,NaN
85451.5,24.1348,19.9999,0.00538834,582.911,0.00134709,145.728,NaN
85680.6,24.1346,19.9993,0.00536936,584.143,0.00134234,146.036,NaN
86058.6,24.1758,20,0.00533869,586.167,0.00133467,146.542,NaN
86313.7,24.1259,19.9997,0.00531795,587.526,0.00132949,146.882,NaN
86519.8,24.1433,20,0.00530146,588.621,0.00132536,147.155,NaN
86785.3,24.1466,19.9994,0.00527991,590.025,0.00131998,147.506,NaN
87054.1,24.1303,19.9996,0.00525854,591.442,0.00131464,147.86,NaN
87233.5,24.1535,19.9998,0.00524411,592.384,0.00131103,148.096,NaN
87431.4,24.1688,19.9997,0.00522837,593.42,0.00130709,148.355,NaN
87657.6,24.1378,19.9999,0.00521036,594.6,0.00130259,148.65,NaN
87928.6,24.1274,20.0001,0.00518955,596.009,0.00129739,149.002,NaN
88165.3,24.1369,19.9995,0.00517118,597.236,0.00129279,149.309,NaN
88377.5,24.1806,19.9998,0.00515486,598.331,0.00128871,149.583,NaN
88560,24.138,19.9998,0.00514093,599.271,0.00128523,149.818,NaN
88798.3,24.1497,19.9998,0.00512279,600.494,0.0012807,150.123,NaN
89017.5,24.1845,20.0002,0.00510582,601.615,0.00127646,150.404,NaN
89232,24.1485,19.9998,0.00508927,602.708,0.00127232,150.677,NaN
89474.9,24.1676,20.0002,0.00507122,603.942,0.00126781,150.986,NaN
89736.6,24.1831,19.9997,0.00505176,605.267,0.00126294,151.317,NaN
89947.9,24.1713,19.9999,0.00503605,606.332,0.00125901,151.583,NaN
90213.9,24.1769,20.0002,0.00501608,607.669,0.00125402,151.917,NaN
90467.8,24.1361,19.9992,0.00499762,608.941,0.0012494,152.235,NaN
90671,24.1792,19.9995,0.00498277,609.955,0.00124569,152.489,NaN
90953.4,24.1902,19.9996,0.00496201,611.359,0.0012405,152.84,NaN
91177.4,24.1477,19.9997,0.00494578,612.469,0.00123645,153.117,NaN
91395.1,24.1443,20.0004,0.00493044,613.544,0.00123261,153.386,NaN
91654.9,24.1783,20.0002,0.00491202,614.822,0.00122801,153.706,NaN
91879.2,24.1383,19.9997,0.00489645,615.922,0.00122411,153.981,NaN
92094.6,24.1561,19.9999,0.00488123,616.975,0.00122031,154.244,NaN
92300,24.2106,20.0002,0.00486713,617.976,0.00121678,154.494,NaN
92511.1,24.2001,19.9995,0.00485254,619.002,0.00121314,154.751,NaN
92742.2,24.1649,19.9998,0.00483673,620.122,0.00120918,155.03,NaN
92943.6,24.169,20.0003,0.00482295,621.095,0.00120574,155.274,NaN
93189.7,24.1912,19.9999,0.0048064,622.279,0.0012016,155.57,NaN
93394.7,24.165,19.9996,0.00479223,623.263,0.00119806,155.816,NaN
93666.9,24.1932,20.0002,0.00477412,624.565,0.00119353,156.141,NaN
93923.4,24.1792,20.0002,0.00475712,625.788,0.00118928,156.447,NaN
94124.5,24.2564,19.9995,0.00474374,626.743,0.00118593,156.686,NaN
94422.4,24.2005,19.9994,0.00472446,628.153,0.00118112,157.038,NaN
94615.6,24.1871,20.0002,0.00471186,629.065,0.00117797,157.266,NaN
94849.9,24.2025,20,0.00469657,630.167,0.00117414,157.542,NaN
95092.7,24.1815,19.9995,0.00468102,631.306,0.00117026,157.826,NaN
95336.9,24.1732,20.0004,0.00466548,632.447,0.00116637,158.112,NaN
95558,24.1737,19.9997,0.00465137,633.476,0.00116284,158.369,NaN
95795.6,24.1806,19.9994,0.00463644,634.58,0.00115911,158.645,NaN
96026,24.1823,20,0.00462227,635.647,0.00115557,158.912,NaN
96231.1,24.2007,19.9999,0.00460974,636.593,0.00115244,159.148,NaN
96491,24.1874,19.9998,0.00459381,637.789,0.00114845,159.447,NaN
96734,24.1898,19.9992,0.00457896,638.904,0.00114474,159.726,NaN
96986.9,24.1783,19.9997,0.00456346,640.06,0.00114087,160.015,NaN
97203.2,24.1723,19.9996,0.00455027,641.046,0.00113757,160.261,NaN
97502.5,24.2045,19.9996,0.00453229,642.405,0.00113307,160.601,NaN
97742.6,24.1902,19.9999,0.00451813,643.491,0.00112953,160.873,NaN
97967.4,24.147,20.0001,0.00450485,644.505,0.00112621,161.126,NaN
98185.8,24.1808,19.9997,0.00449209,645.488,0.00112302,161.372,NaN
98478.3,24.1883,20,0.00447468,646.799,0.00111867,161.7,NaN
98781.9,24.1905,19.9997,0.00445691,648.155,0.00111423,162.039,NaN
98996.9,24.1917,19.9995,0.00444447,649.112,0.00111112,162.278,NaN
99260.2,24.1651,19.9998,0.0044294,650.28,0.00110735,162.57,NaN
99475.8,24.193,19.9999,0.00441742,651.234,0.00110435,162.808,NaN
99799.9,24.2156,19.9999,0.00439921,652.662,0.0010998,163.166,NaN
100049,24.2089,19.9998,0.00438555,653.757,0.00109639,163.439,NaN
100308,24.2057,19.9995,0.00437142,654.892,0.00109285,163.723,NaN
100575,24.1977,19.9996,0.00435696,656.058,0.00108924,164.014,NaN
100851,24.175,20.0002,0.00434258,657.256,0.00108565,164.314,NaN
101092,24.1488,19.9997,0.00433019,658.301,0.00108255,164.575,NaN
101318,24.1819,20.0002,0.00431796,659.28,0.00107949,164.82,NaN
101546,24.143,20.0001,0.00430639,660.26,0.0010766,165.065,NaN
101883,24.1792,19.9997,0.00428849,661.711,0.00107212,165.428,NaN
102219,24.2181,19.9997,0.00427099,663.147,0.00106775,165.787,NaN
102491,24.1896,19.9996,0.00425746,664.306,0.00106437,166.077,NaN
102796,24.1634,19.9997,0.00424191,665.606,0.00106048,166.401,NaN
103058,24.1647,19.9998,0.00422884,666.713,0.00105721,166.678,NaN
103308,24.1826,19.9999,0.00421641,667.767,0.0010541,166.942,NaN
103619,24.1781,20.0004,0.00420076,669.08,0.00105019,167.27,NaN
103970,24.1793,19.9995,0.00418391,670.551,0.00104598,167.638,NaN
104208,24.1936,19.9999,0.00417227,671.545,0.00104307,167.886,NaN
104482,24.213,20.0002,0.00415903,672.684,0.00103976,168.171,NaN
104796,24.2271,20,0.00414407,673.99,0.00103602,168.497,NaN
105018,24.2056,19.9994,0.00413371,674.908,0.00103343,168.727,NaN
105263,24.3112,19.9998,0.00412202,675.921,0.0010305,168.98,NaN
105537,24.2829,20,0.00410952,677.048,0.00102738,169.262,NaN
105813,24.3245,20.0001,0.0040971,678.18,0.00102428,169.545,NaN
106078,24.3258,20.0002,0.0040858,679.264,0.00102145,169.816,NaN
106338,24.3591,19.9999,0.00407511,680.323,0.00101878,170.081,NaN
106590,24.3006,19.9999,0.00406448,681.349,0.00101612,170.337,NaN
106897,24.3298,20.0002,0.00405126,682.598,0.00101282,170.649,NaN
107125,24.2725,19.9995,0.00404128,683.518,0.00101032,170.879,NaN
107447,24.274,20.0001,0.00402737,684.818,0.00100684,171.205,NaN
107702,24.2381,19.9986,0.00401667,685.845,0.00100417,171.461,NaN
107968,24.2551,19.9991,0.0040056,686.912,0.0010014,171.728,NaN
108209,24.2534,19.9999,0.00399591,687.875,0.000998978,171.969,NaN
108485,24.2717,19.9996,0.00398471,688.976,0.000996178,172.244,NaN
108691,24.2748,19.9999,0.00397634,689.797,0.000994085,172.449,NaN
108925,24.2621,19.9997,0.00396679,690.725,0.000991698,172.681,NaN
109211,24.2943,19.9997,0.00395511,691.86,0.000988777,172.965,NaN
109519,24.2729,19.9999,0.00394257,693.072,0.000985643,173.268,NaN
109792,24.2688,19.9998,0.00393141,694.148,0.000982851,173.537,NaN
110215,24.268,19.9998,0.00391398,695.808,0.000978496,173.952,NaN
110495,24.2538,20.0002,0.00390257,696.902,0.000975642,174.225,NaN
110736,24.2442,20.0001,0.0038928,697.843,0.000973201,174.461,NaN
111069,24.2519,19.9996,0.00387888,699.134,0.000969719,174.784,NaN
111362,24.2419,19.9996,0.00386751,700.272,0.000966877,175.068,NaN
111582,24.2555,19.9996,0.00385869,701.12,0.000964673,175.28,NaN
111809,24.2646,20,0.00384953,701.997,0.000962383,175.499,NaN
112106,24.2575,19.9998,0.00383758,703.136,0.000959396,175.784,NaN
112364,24.2545,20.0001,0.00382745,704.124,0.000956862,176.031,NaN
112615,24.2422,19.9999,0.0038175,705.086,0.000954376,176.271,NaN
112880,24.363,19.9999,0.00380701,706.096,0.000951751,176.524,NaN
113128,24.2776,20.0004,0.00379739,707.038,0.000949347,176.759,NaN
113324,24.2661,20,0.00378976,707.782,0.00094744,176.945,NaN
113664,24.2762,19.9997,0.00377699,709.07,0.000944248,177.267,NaN
113950,24.261,20.0003,0.00376627,710.147,0.000941566,177.537,NaN
114201,24.2945,20.0001,0.00375663,711.092,0.000939158,177.773,NaN
114503,24.2932,19.9988,0.00374533,712.223,0.000936332,178.056,NaN
114782,24.2256,19.9997,0.00373458,713.266,0.000933645,178.316,NaN
115050,24.2724,19.9996,0.00372423,714.267,0.000931057,178.567,NaN
115348,24.2791,19.9997,0.0037132,715.374,0.000928301,178.843,NaN
115601,24.2798,20.0001,0.00370382,716.313,0.000925954,179.078,NaN
115879,24.2519,19.9998,0.00369323,717.343,0.000923307,179.336,NaN
116166,24.2421,19.9994,0.00368217,718.401,0.000920543,179.6,NaN
116426,24.2388,20,0.00367269,719.357,0.000918172,179.839,NaN
116703,24.2335,19.9997,0.00366209,720.37,0.000915523,180.093,NaN
116959,24.2116,20.0001,0.00365233,721.307,0.000913082,180.327,NaN
117217,24.2789,20,0.00364246,722.248,0.000910616,180.562,NaN
117471,24.2199,19.9998,0.00363267,723.172,0.000908168,180.793,NaN
117756,24.1886,20,0.00362191,724.207,0.000905477,181.052,NaN
118051,24.1967,20,0.00361033,725.272,0.000902584,181.318,NaN
118303,24.2149,19.9999,0.00360062,726.181,0.000900156,181.545,NaN
118608,24.2051,20.0001,0.00358886,727.278,0.000897215,181.819,NaN
118918,24.1952,19.9996,0.00357688,728.391,0.00089422,182.098,NaN
119151,24.1759,19.9996,0.00356783,729.223,0.000891957,182.306,NaN
119472,24.1592,20,0.00355566,730.364,0.000888915,182.591,NaN
119748,24.1759,19.9999,0.00354469,731.344,0.000886174,182.836,NaN
120024,24.156,19.9996,0.00353398,732.323,0.000883495,183.081,NaN
120274,24.1881,19.9998,0.00352416,733.206,0.000881039,183.301,NaN
120591,24.1732,19.9996,0.00351229,734.318,0.000878072,183.579,NaN
120834,24.2004,19.9999,0.00350259,735.173,0.000875648,183.793,NaN
121114,24.189,19.9995,0.00349211,736.152,0.000873028,184.038,NaN
121395,24.1786,20.0007,0.00348161,737.132,0.000870403,184.283,NaN
121631,24.1948,20.0001,0.00347286,737.953,0.000868214,184.488,NaN
121843,24.2111,20.0001,0.00346405,738.687,0.000866012,184.672,NaN
122048,24.1684,19.9997,0.00345611,739.396,0.000864027,184.849,NaN
122300,24.1705,19.9994,0.00344605,740.264,0.000861512,185.066,NaN
122543,24.1611,20,0.00343602,741.103,0.000859005,185.276,NaN
122703,24.1529,19.9993,0.00342954,741.65,0.000857384,185.413,NaN
122990,24.2003,19.9994,0.00341833,742.635,0.000854583,185.659,NaN
123192,24.1608,19.9996,0.00341051,743.322,0.000852628,185.831,NaN
123494,24.1585,19.9993,0.00339859,744.351,0.000849647,186.088,NaN
123853,24.1844,20.0001,0.00338471,745.57,0.000846177,186.393,NaN
124102,24.1518,19.9996,0.00337498,746.41,0.000843745,186.603,NaN
124397,24.1523,19.9995,0.00336358,747.403,0.000840894,186.851,NaN
124736,24.1605,19.9997,0.00335028,748.543,0.00083757,187.136,NaN
124984,24.1667,19.9999,0.00334086,749.373,0.000835215,187.343,NaN
125209,24.1426,19.9999,0.00333197,750.122,0.000832993,187.531,NaN
125446,24.1929,20,0.00332254,750.91,0.000830634,187.728,NaN
125651,24.1396,20.0003,0.00331467,751.592,0.000828668,187.898,NaN
125990,24.1103,19.9999,0.00330106,752.713,0.000825266,188.178,NaN
126217,24.1945,19.9999,0.00329218,753.46,0.000823046,188.365,NaN
126530,24.1468,20,0.00328021,754.489,0.000820051,188.622,NaN
126806,24.135,19.9997,0.00326888,755.393,0.00081722,188.848,NaN
127081,24.1459,20.0001,0.00325757,756.29,0.000814394,189.073,NaN
127403,24.1545,19.9998,0.00324461,757.337,0.000811152,189.334,NaN
127744,24.142,19.999,0.00323103,758.441,0.000807758,189.61,NaN
127987,24.1551,20.0006,0.0032211,759.226,0.000805275,189.807,NaN
128298,24.1448,19.9998,0.00320897,760.227,0.000802243,190.057,NaN
128539,24.1486,19.9999,0.00319946,760.998,0.000799865,190.25,NaN
128801,24.1192,20,0.00318883,761.836,0.000797208,190.459,NaN
129071,24.1375,20.0001,0.00317834,762.696,0.000794584,190.674,NaN
129452,24.1412,19.9998,0.00316327,763.903,0.000790816,190.976,NaN
129771,24.1531,20,0.00314996,764.911,0.000787491,191.228,NaN
130025,24.1334,19.9999,0.00314007,765.708,0.000785018,191.427,NaN
130317,24.1298,20,0.00312854,766.624,0.000782135,191.656,NaN
130595,24.1279,19.9999,0.00311778,767.492,0.000779446,191.873,NaN
130852,24.1541,19.9997,0.00310721,768.293,0.000776803,192.073,NaN
131099,24.1434,20,0.00309739,769.057,0.000774348,192.264,NaN
131390,24.168,19.9994,0.00308599,769.957,0.000771498,192.489,NaN
131640,24.1291,19.9995,0.00307642,770.727,0.000769105,192.682,NaN
131897,24.1202,19.9998,0.00306693,771.518,0.000766733,192.879,NaN
132275,24.1305,20.0001,0.00305234,772.675,0.000763086,193.169,NaN
132540,24.1365,19.9998,0.00304277,773.482,0.000760693,193.371,NaN
132808,24.12,19.9995,0.00303303,774.296,0.000758257,193.574,NaN
133055,24.077,19.9997,0.00302324,775.043,0.00075581,193.761,NaN
133315,24.1054,20,0.00301366,775.83,0.000753415,193.957,NaN
133581,24.0954,20.0001,0.00300352,776.629,0.000750881,194.157,NaN
133833,24.1056,20.0003,0.00299418,777.383,0.000748546,194.346,NaN
134041,24.1317,19.9997,0.00298629,778.006,0.000746571,194.501,NaN
134308,24.1,19.9996,0.00297636,778.801,0.000744089,194.7,NaN
134600,24.0659,20,0.00296609,779.67,0.000741523,194.917,NaN
134827,24.0937,19.9995,0.00295819,780.342,0.000739547,195.086,NaN
135130,24.0741,20.0001,0.00294754,781.237,0.000736885,195.309,NaN
135321,24.076,19.9997,0.00294102,781.8,0.000735254,195.45,NaN
135592,24.089,19.9997,0.00293175,782.594,0.000732937,195.648,NaN
135824,24.0962,19.9997,0.0029235,783.275,0.000730875,195.819,NaN
136050,24.1068,20,0.00291545,783.933,0.000728862,195.983,NaN
136267,24.0951,19.9996,0.00290751,784.567,0.000726876,196.142,NaN
136506,24.0842,19.9995,0.00289946,785.261,0.000724865,196.315,NaN
136738,24.087,19.9999,0.0028913,785.932,0.000722825,196.483,NaN
137027,24.0876,19.9996,0.00288212,786.765,0.000720531,196.691,NaN
137273,24.0809,19.9995,0.0028741,787.473,0.000718524,196.868,NaN
137592,24.0847,19.9999,0.00286379,788.388,0.000715948,197.097,NaN
137845,24.0615,19.9999,0.00285588,789.113,0.000713971,197.278,NaN
138170,24.0617,19.9999,0.00284609,790.038,0.000711522,197.51,NaN
138473,24.0798,19.9997,0.00283648,790.901,0.000709119,197.725,NaN
138790,24.0825,19.9999,0.00282686,791.797,0.000706716,197.949,NaN
139065,24.0954,19.9997,0.0028181,792.574,0.000704524,198.143,NaN
139365,24.0732,20,0.00280909,793.417,0.000702273,198.354,NaN
139614,24.083,19.9998,0.00280145,794.117,0.000700362,198.529,NaN
139889,24.0779,19.9995,0.00279335,794.885,0.000698338,198.721,NaN
140183,24.0779,19.9996,0.00278522,795.705,0.000696304,198.926,NaN
140501,24.0611,20,0.00277629,796.589,0.000694072,199.147,NaN
140730,24.0718,20.0002,0.00276951,797.226,0.000692376,199.306,NaN
140932,24.0598,19.9996,0.00276382,797.785,0.000690954,199.446,NaN
141321,24.1027,19.9997,0.00275286,798.857,0.000688216,199.714,NaN
141565,24.0629,20,0.00274619,799.528,0.000686548,199.882,NaN
141786,24.0666,19.9998,0.00274008,800.134,0.00068502,200.033,NaN
142099,24.0398,20.0001,0.00273103,800.99,0.000682759,200.247,NaN
142310,24.0737,19.9998,0.00272549,801.566,0.000681373,200.392,NaN
142525,24.0353,19.9993,0.00271993,802.151,0.000679982,200.538,NaN
142809,24.0688,20.0001,0.00271254,802.924,0.000678135,200.731,NaN
143151,24.0674,19.9997,0.00270402,803.849,0.000676005,200.962,NaN
143391,24.0744,20.0002,0.00269737,804.498,0.000674343,201.124,NaN
143629,24.0904,20,0.00269135,805.139,0.000672839,201.285,NaN
143956,24.0428,19.9998,0.0026832,806.017,0.000670799,201.504,NaN
144256,24.0611,19.9994,0.00267552,806.822,0.000668879,201.706,NaN
144534,24.0609,19.9997,0.00266825,807.565,0.000667062,201.891,NaN
144769,24.017,19.9997,0.00266239,808.191,0.000665597,202.048,NaN
144981,24.0202,19.9992,0.00265746,808.754,0.000664364,202.189,NaN
145223,24.014,20.0005,0.00265184,809.396,0.00066296,202.349,NaN
145557,24.0251,20,0.00264369,810.28,0.000660923,202.57,NaN
145837,24.0023,20.0004,0.00263665,811.019,0.000659162,202.755,NaN
146079,24.0193,19.9998,0.00263045,811.657,0.000657613,202.914,NaN
146295,24.0112,19.9993,0.00262489,812.225,0.000656222,203.056,NaN
146613,24.0449,19.9998,0.00261758,813.058,0.000654395,203.265,NaN
146883,24.0197,20.0003,0.00261065,813.764,0.000652662,203.441,NaN
147135,24.0156,19.9998,0.0026042,814.422,0.00065105,203.605,NaN
147386,24.0126,19.9995,0.00259828,815.074,0.00064957,203.769,NaN
147594,24.0189,20.0003,0.00259367,815.614,0.000648416,203.904,NaN
147882,24.0404,19.9996,0.00258698,816.36,0.000646745,204.09,NaN
148139,24.0069,20,0.00258137,817.024,0.000645343,204.256,NaN
148394,24.0022,20,0.00257536,817.682,0.000643839,204.42,NaN
148653,24.008,19.9997,0.00256931,818.349,0.000642328,204.587,NaN
148940,24.0215,20,0.00256273,819.084,0.000640683,204.771,NaN
149215,23.9917,19.9998,0.00255651,819.788,0.000639129,204.947,NaN
149470,24.0374,19.9997,0.00255058,820.44,0.000637646,205.11,NaN
149754,24.0154,20.0003,0.00254371,821.163,0.000635926,205.291,NaN
150082,24.0163,19.9995,0.00253676,821.997,0.000634191,205.499,NaN
150274,24.0288,19.9999,0.00253233,822.484,0.000633082,205.621,NaN
150552,23.9911,19.9998,0.00252624,823.187,0.00063156,205.797,NaN
150879,23.9927,19.9998,0.00251905,824.01,0.000629763,206.002,NaN
151162,23.997,19.9996,0.00251238,824.722,0.000628094,206.18,NaN
151392,24.0371,19.9995,0.00250741,825.299,0.000626854,206.325,NaN
151629,23.9801,19.9996,0.00250235,825.892,0.000625588,206.473,NaN
151856,24.0019,19.9997,0.0024973,826.46,0.000624324,206.615,NaN
152091,23.9879,19.9998,0.00249208,827.048,0.00062302,206.762,NaN
152317,23.9839,19.9997,0.00248649,827.609,0.000621622,206.902,NaN
152565,23.9892,19.9998,0.00248111,828.225,0.000620278,207.056,NaN
152813,24.0098,19.9998,0.00247577,828.842,0.000618942,207.21,NaN
153011,23.9836,20.0001,0.00247154,829.33,0.000617884,207.333,NaN
153247,24.0183,19.9999,0.00246652,829.913,0.00061663,207.478,NaN
153564,23.9938,19.9999,0.00245994,830.694,0.000614984,207.674,NaN
153867,23.9857,19.9997,0.00245348,831.439,0.000613369,207.86,NaN
154199,23.9744,20.0001,0.00244658,832.251,0.000611646,208.063,NaN
154443,23.929,19.9994,0.00244167,832.849,0.000610418,208.212,NaN
154785,23.9589,19.9997,0.00243411,833.681,0.000608527,208.42,NaN
155090,23.9961,19.9998,0.00242778,834.423,0.000606946,208.606,NaN
155364,23.9707,20.0001,0.00242241,835.087,0.000605603,208.772,NaN
155656,23.9597,19.9997,0.00241674,835.794,0.000604185,208.948,NaN
155958,23.9508,19.9998,0.00241012,836.522,0.00060253,209.13,NaN
156156,23.9676,20.0001,0.00240576,837.001,0.00060144,209.25,NaN
156440,23.9671,20.0003,0.00240044,837.683,0.000600111,209.421,NaN
156716,23.962,19.9997,0.00239484,838.344,0.00059871,209.586,NaN
156960,23.9763,19.9999,0.00238983,838.929,0.000597456,209.732,NaN
157320,23.9495,19.9998,0.00238248,839.786,0.000595619,209.947,NaN
157610,23.9473,20,0.00237676,840.476,0.000594189,210.119,NaN
157902,23.9891,19.9996,0.00237121,841.17,0.000592803,210.293,NaN
158145,23.9418,19.9999,0.00236624,841.746,0.000591559,210.436,NaN
158441,23.9005,20.0001,0.00236021,842.446,0.000590052,210.612,NaN
158667,23.9378,19.9999,0.00235571,842.979,0.000588927,210.745,NaN
158955,23.926,19.9998,0.00235023,843.656,0.000587556,210.914,NaN
159275,23.9168,19.9998,0.00234407,844.408,0.000586018,211.102,NaN
159589,23.9077,19.9998,0.00233783,845.142,0.000584459,211.285,NaN
159847,23.8823,19.9997,0.00233279,845.745,0.000583199,211.436,NaN
160127,23.9116,19.9997,0.00232765,846.398,0.000581913,211.599,NaN
160406,23.9244,19.9999,0.00232259,847.045,0.000580648,211.761,NaN
160656,23.9077,20,0.00231806,847.626,0.000579515,211.907,NaN
160919,23.9155,20,0.0023129,848.235,0.000578224,212.059,NaN
161182,23.9299,20.0001,0.00230806,848.842,0.000577014,212.211,NaN
161483,23.8844,20,0.00230234,849.537,0.000575584,212.384,NaN
161743,23.89,19.9995,0.00229721,850.134,0.000574303,212.534,NaN
162054,23.8808,19.9997,0.00229085,850.849,0.000572714,212.712,NaN
162251,23.9117,19.9992,0.00228686,851.298,0.000571715,212.825,NaN
162615,23.8743,20.0002,0.00227971,852.129,0.000569928,213.032,NaN
162834,23.902,19.9994,0.00227572,852.628,0.000568931,213.157,NaN
163137,23.856,19.9999,0.00227045,853.318,0.000567612,213.33,NaN
163482,23.8816,20.0001,0.00226447,854.099,0.000566116,213.525,NaN
163766,23.8817,19.9999,0.00225953,854.741,0.000564882,213.685,NaN
163984,23.8907,20,0.00225595,855.235,0.000563988,213.809,NaN
164322,23.857,19.9994,0.00225002,855.995,0.000562505,213.999,NaN
164652,23.8794,19.9999,0.00224419,856.737,0.000561047,214.184,NaN
164879,23.9263,19.9996,0.00223983,857.246,0.000559958,214.312,NaN
165067,23.8646,19.9996,0.00223656,857.666,0.000559141,214.416,NaN
165253,23.8727,19.9999,0.00223314,858.083,0.000558285,214.521,NaN
165587,23.8636,19.9996,0.00222771,858.828,0.000556927,214.707,NaN
165809,23.8408,19.9998,0.00222387,859.322,0.000555968,214.83,NaN
166079,23.8731,19.9999,0.00221886,859.921,0.000554715,214.98,NaN
166299,23.8834,20,0.00221562,860.41,0.000553904,215.102,NaN
166533,23.8703,20.0001,0.00221172,860.928,0.000552931,215.232,NaN
166864,23.8777,19.9996,0.00220626,861.658,0.000551564,215.414,NaN
167177,23.8425,19.9996,0.00220109,862.348,0.000550272,215.587,NaN
167424,23.8585,19.9996,0.002197,862.89,0.000549251,215.723,NaN
167784,23.8393,19.9997,0.00219081,863.68,0.000547703,215.92,NaN
168046,23.849,20,0.00218637,864.254,0.000546591,216.064,NaN
168316,23.7972,19.9997,0.00218171,864.845,0.000545426,216.211,NaN
168537,23.8606,19.9997,0.00217831,865.326,0.000544577,216.331,NaN
168793,23.8415,19.9994,0.00217449,865.884,0.000543621,216.471,NaN
169003,23.8452,20,0.00217134,866.34,0.000542834,216.585,NaN
169244,23.8486,20,0.00216757,866.862,0.000541892,216.715,NaN
169488,23.8626,19.9996,0.00216388,867.39,0.000540969,216.848,NaN
169771,23.8196,19.9996,0.00215964,868.003,0.000539911,217.001,NaN
170023,23.8495,20,0.00215578,868.546,0.000538946,217.137,NaN
170300,23.8532,19.9998,0.00215115,869.143,0.000537788,217.286,NaN
170596,23.8677,19.9995,0.00214664,869.779,0.000536661,217.445,NaN
170870,23.8472,19.9998,0.00214238,870.368,0.000535596,217.592,NaN
171112,23.8511,19.9998,0.00213875,870.885,0.000534687,217.721,NaN
171329,23.8803,19.9995,0.00213573,871.347,0.000533934,217.837,NaN
171599,23.8534,19.9999,0.00213158,871.925,0.000532896,217.981,NaN
171815,23.8955,19.9998,0.00212863,872.385,0.000532157,218.096,NaN
172073,23.8628,20,0.00212487,872.933,0.000531217,218.233,NaN
172286,23.8733,19.9995,0.00212226,873.385,0.000530565,218.346,NaN
172553,23.8801,20.0001,0.00211862,873.952,0.000529655,218.488,NaN
172799,23.8945,19.9996,0.00211516,874.473,0.000528791,218.618,NaN
173127,23.8974,20,NaN,NaN,NaN,NaN,NaN
173434,23.9056,19.9992,NaN,NaN,NaN,NaN,NaN
173690,23.8597,20,NaN,NaN,NaN,NaN,NaN
174029,23.9066,19.9998,NaN,NaN,NaN,NaN,NaN
174343,23.8491,19.9994,NaN,NaN,NaN,NaN,NaN
174704,23.9077,20,NaN,NaN,NaN,NaN,NaN
175033,23.9287,19.9997,NaN,NaN,NaN,NaN,NaN
175352,23.9304,19.9997,NaN,NaN,NaN,NaN,NaN
175699,23.9219,20,NaN,NaN,NaN,NaN,NaN
176105,23.9442,20.0001,NaN,NaN,NaN,NaN,NaN
176480,23.9137,20.0002,NaN,NaN,NaN,NaN,NaN
176903,23.92,20.0001,NaN,NaN,NaN,NaN,NaN
177219,23.9174,19.9999,NaN,NaN,NaN,NaN,NaN
177486,23.9241,19.9998,NaN,NaN,NaN,NaN,NaN
177802,23.9649,20.0005,NaN,NaN,NaN,NaN,NaN
178077,23.9558,20.0001,NaN,NaN,NaN,NaN,NaN
178389,23.9513,20,NaN,NaN,NaN,NaN,NaN
178726,23.9527,19.9998,NaN,NaN,NaN,NaN,NaN
179010,23.9517,20,NaN,NaN,NaN,NaN,NaN
179324,23.9622,20.0005,NaN,NaN,NaN,NaN,NaN
179688,23.9739,19.9997,NaN,NaN,NaN,NaN,NaN
180112,23.947,20.0001,NaN,NaN,NaN,NaN,NaN
180529,23.942,19.9997,NaN,NaN,NaN,NaN,NaN
180806,23.9371,19.9997,NaN,NaN,NaN,NaN,NaN
181095,23.9572,20.0001,NaN,NaN,NaN,NaN,NaN
181256,24.0081,19.9997,NaN,NaN,NaN,NaN,NaN
181532,23.9616,19.9996,NaN,NaN,NaN,NaN,NaN
181829,23.9561,19.9991,NaN,NaN,NaN,NaN,NaN
182192,23.9891,19.9997,NaN,NaN,NaN,NaN,NaN
182518,23.981,19.9998,NaN,NaN,NaN,NaN,NaN
182903,23.9803,19.9998,NaN,NaN,NaN,NaN,NaN
183238,24.0097,19.9998,NaN,NaN,NaN,NaN,NaN
183592,23.9837,20.0002,NaN,NaN,NaN,NaN,NaN
183866,23.9539,20.0003,NaN,NaN,NaN,NaN,NaN
184147,23.9861,19.9995,NaN,NaN,NaN,NaN,NaN
184454,23.9949,20,NaN,NaN,NaN,NaN,NaN
184798,23.9693,19.9995,NaN,NaN,NaN,NaN,NaN
185156,24.0414,19.9996,NaN,NaN,NaN,NaN,NaN
185490,24.0722,20.0003,NaN,NaN,NaN,NaN,NaN
185826,24.1285,20,NaN,NaN,NaN,NaN,NaN
186112,24.1122,19.9998,NaN,NaN,NaN,NaN,NaN
186363,24.1936,20.0006,NaN,NaN,NaN,NaN,NaN