File: TAInstCalorimetry/DATA/myexp6.csv
Time,Temperature [AmbientT(Therm3T)],Temperature [Temperature],Heat flow [Signal],Heat [Signal],Normalized heat flow [Signal],Normalized heat [Signal],Time markers
0.0,24.442,20,NaN,NaN,NaN,NaN,Reaction start
30.5052,24.4481,20.0001,0.00109081,0.00497222,0.000272702,0.00124305,NaN
48.5052,24.4957,20.0003,0.0132896,0.112362,0.0033224,0.0280906,NaN
70.5052,24.4676,20.0001,0.0385062,0.679439,0.00962654,0.16986,NaN
90.5052,24.4862,20,0.0587023,1.66,0.0146756,0.415,NaN
109.021,24.4613,20.0003,0.0725227,2.8822,0.0181307,0.72055,NaN
127.505,24.479,20.0002,0.0819969,4.31601,0.0204992,1.079,NaN
145.505,24.494,20.0002,0.0880227,5.85028,0.0220057,1.46257,NaN
166.505,24.4977,20,0.0920885,7.74613,0.0230221,1.93653,NaN
193.005,24.5533,19.9999,0.0940863,10.2192,0.0235216,2.55481,NaN
225.005,24.5314,20.0001,0.0935795,13.2283,0.0233949,3.30708,NaN
267.005,24.5122,20.0002,0.0903111,17.097,0.0225778,4.27426,NaN
321.005,24.5454,20.0005,0.0843911,21.8179,0.0210978,5.45448,NaN
370.505,24.5744,20.0003,0.0787876,25.8553,0.0196969,6.46383,NaN
424.505,24.5598,20.0001,0.0733094,29.9578,0.0183274,7.48944,NaN
478.505,24.5885,20.0001,0.0687431,33.7894,0.0171858,8.44735,NaN
539.005,24.622,20.0003,0.064328,37.8133,0.016082,9.45332,NaN
604.005,24.5958,20.0003,0.059244,41.8346,0.014811,10.4586,NaN
662.005,24.5717,20.0003,0.0537926,45.1164,0.0134481,11.2791,NaN
719.255,24.5279,20.0003,0.0479468,48.0294,0.0119867,12.0073,NaN
785.005,24.5328,20.0002,0.0413991,50.964,0.0103498,12.741,NaN
841.005,24.5553,19.9999,0.0363262,53.1376,0.00908156,13.2844,NaN
904.169,24.5498,19.9999,0.0313103,55.2696,0.00782758,13.8174,NaN
967.005,24.5325,19.9998,0.0270647,57.1,0.00676618,14.275,NaN
1021.01,24.529,19.9998,0.0239687,58.4756,0.00599217,14.6189,NaN
1094.38,24.5478,19.9999,0.0204258,60.0995,0.00510645,15.0249,NaN
1167.63,24.5318,19.9999,0.0175564,61.487,0.00438911,15.3717,NaN
1246.76,24.5363,19.9995,0.0150514,62.7734,0.00376286,15.6933,NaN
1343.69,24.5427,19.9998,0.0126378,64.1103,0.00315944,16.0276,NaN
1445.04,24.5359,20,0.0107015,65.2885,0.00267538,16.3221,NaN
1529.72,24.6556,19.9995,0.00943109,66.139,0.00235777,16.5348,NaN
1650.95,24.5326,19.9997,0.00801878,67.1927,0.00200469,16.7982,NaN
1775.91,24.511,19.9998,0.00692754,68.1232,0.00173189,17.0308,NaN
1913.65,24.5402,19.9998,0.00602347,69.0122,0.00150587,17.253,NaN
2075.08,24.5152,19.9995,0.00523675,69.9178,0.00130919,17.4795,NaN
2216.38,24.5061,19.9996,0.00471317,70.6193,0.00117829,17.6548,NaN
2397.23,24.5471,20,0.00419641,71.4228,0.0010491,17.8557,NaN
2592.23,24.5646,19.9995,0.00377043,72.1977,0.000942609,18.0494,NaN
2763.46,24.5178,19.9996,0.00347352,72.8171,0.00086838,18.2043,NaN
2944.61,24.5614,19.9999,0.00321573,73.4222,0.000803934,18.3556,NaN
3135.55,24.5674,19.9998,0.00299082,74.014,0.000747706,18.5035,NaN
3399.85,24.5725,19.9998,0.00273822,74.7699,0.000684555,18.6925,NaN
3594.03,24.5749,19.9996,0.00258574,75.2864,0.000646434,18.8216,NaN
3863.38,24.5644,19.9994,0.00240841,75.9581,0.000602103,18.9895,NaN
4089.88,24.5533,19.9995,0.00228209,76.4891,0.000570522,19.1223,NaN
4295.07,24.6202,19.9999,0.0021829,76.9469,0.000545726,19.2367,NaN
4491.95,24.5163,20,0.002099,77.3682,0.000524751,19.3421,NaN
4766.01,24.5886,19.9996,0.00199838,77.9293,0.000499594,19.4823,NaN
4969.51,24.5795,19.9995,0.0019347,78.3294,0.000483676,19.5824,NaN
5215.74,24.6012,20,0.0018669,78.7972,0.000466726,19.6993,NaN
5499.47,24.5861,19.9998,0.00180119,79.3173,0.000450297,19.8293,NaN
5755.24,24.562,19.9998,0.00175025,79.7713,0.000437561,19.9428,NaN
6054.24,24.6055,20,0.00169982,80.2869,0.000424954,20.0717,NaN
6241.57,24.566,19.9998,0.00167362,80.6028,0.000418406,20.1507,NaN
6518.46,24.5847,19.9997,0.00164198,81.0616,0.000410495,20.2654,NaN
6739.51,24.5915,19.9998,0.00162183,81.4223,0.000405456,20.3556,NaN
6940.11,24.6095,19.9996,0.00160679,81.7461,0.000401697,20.4365,NaN
7114.98,24.6066,20.0002,0.00159666,82.0261,0.000399166,20.5065,NaN
7322.04,24.6123,19.9998,0.00158693,82.3557,0.000396732,20.5889,NaN
7536.85,24.6155,19.9999,0.00157939,82.6957,0.000394848,20.6739,NaN
7833.27,24.6198,19.9999,0.00157189,83.1627,0.000392973,20.7907,NaN
8109.13,24.5923,20,0.00156881,83.5958,0.000392204,20.8989,NaN
8345.91,24.6025,19.9997,0.00157461,83.9677,0.000393652,20.9919,NaN
8561.07,24.595,19.9998,0.0015938,84.3083,0.00039845,21.0771,NaN
8765.86,24.6139,20.0001,0.00162778,84.6379,0.000406945,21.1595,NaN
8997.65,24.5975,20.0001,0.00167887,85.021,0.000419716,21.2552,NaN
9256.08,24.6222,19.9997,0.00174204,85.4629,0.00043551,21.3657,NaN
9496.28,24.604,19.9996,0.00179965,85.8884,0.000449911,21.4721,NaN
9738.89,24.618,19.9995,0.00185407,86.3317,0.000463518,21.5829,NaN
9942.21,24.6172,19.9996,0.00189682,86.713,0.000474204,21.6783,NaN
10143.6,24.5942,19.9999,0.00193709,87.0992,0.000484271,21.7748,NaN
10423.4,24.622,19.9999,0.00199121,87.6487,0.000497801,21.9122,NaN
10642.9,24.6066,20.0002,0.00203269,88.0904,0.000508173,22.0226,NaN
10899.1,24.6182,20,0.00208131,88.6175,0.000520329,22.1544,NaN
11101.3,24.6415,19.9996,0.00211986,89.0421,0.000529965,22.2605,NaN
11310.8,24.6126,19.9998,0.00216029,89.4904,0.000540072,22.3726,NaN
11574.1,24.6084,19.9995,0.00221203,90.066,0.000553007,22.5165,NaN
11815.7,24.6423,19.9992,0.00226079,90.6064,0.000565198,22.6516,NaN
12007.3,24.6414,19.9999,0.00230003,91.0432,0.000575008,22.7608,NaN
12224.3,24.6314,19.9995,0.00234554,91.5472,0.000586384,22.8868,NaN
12461.9,24.6447,19.9993,0.00239674,92.1106,0.000599184,23.0276,NaN
12670.5,24.6314,19.9999,0.00244244,92.6153,0.00061061,23.1538,NaN
12880.9,24.6213,19.9995,0.00248984,93.1342,0.000622461,23.2835,NaN
13134.8,24.6119,19.9999,0.00254789,93.7738,0.000636974,23.4435,NaN
13441.1,24.6445,20.0001,0.00261951,94.565,0.000654878,23.6412,NaN
13628.7,24.6365,19.9998,0.00266454,95.0606,0.000666134,23.7651,NaN
13860.1,24.6317,19.9998,0.0027205,95.6837,0.000680124,23.9209,NaN
14082.8,24.5952,19.9997,0.00277559,96.2954,0.000693896,24.0739,NaN
14307.5,24.6337,19.9999,0.00283254,96.9255,0.000708134,24.2314,NaN
14653.7,24.6214,19.9995,0.00292132,97.9216,0.00073033,24.4804,NaN
14904.1,24.6134,19.9994,0.00298695,98.6612,0.000746736,24.6653,NaN
15102,24.6306,19.9999,0.00303965,99.2575,0.000759912,24.8144,NaN
15316.6,24.6181,19.9996,0.00309786,99.9161,0.000774465,24.979,NaN
15597.5,24.6387,19.9999,0.00317504,100.797,0.00079376,25.1993,NaN
15811.5,24.6722,19.9992,0.00323469,101.483,0.000808671,25.3707,NaN
15998.8,24.6423,19.9998,0.00328737,102.094,0.000821844,25.5235,NaN
16250.3,24.6287,19.9994,0.00335861,102.929,0.000839652,25.7324,NaN
16486.3,24.6477,19.9998,0.00342579,103.73,0.000856448,25.9325,NaN
16737,24.644,19.9999,0.00349816,104.598,0.000874539,26.1494,NaN
17000.1,24.6309,19.9996,0.00357482,105.528,0.000893706,26.3821,NaN
17224,24.6531,19.9996,0.00364122,106.336,0.000910306,26.584,NaN
17471.7,24.6435,19.9997,0.00371542,107.247,0.000928855,26.8118,NaN
17656.6,24.6513,19.9997,0.00377126,107.939,0.000942816,26.9848,NaN
17892.5,24.6201,19.9998,0.003843,108.838,0.000960751,27.2095,NaN
18183.7,24.6395,19.9995,0.00393183,109.969,0.000982958,27.4923,NaN
18378.2,24.6167,20.0002,0.00399174,110.74,0.000997936,27.685,NaN
18685,24.6584,19.9996,0.00408732,111.979,0.00102183,27.9949,NaN
18857.2,24.6397,19.9997,0.00414166,112.688,0.00103541,28.1719,NaN
19092.3,24.6277,20.0001,0.00421606,113.67,0.00105401,28.4175,NaN
19306.9,24.6305,19.9996,0.00428452,114.582,0.00107113,28.6456,NaN
19516.5,24.7036,19.9999,0.00435162,115.487,0.00108791,28.8718,NaN
19757.8,24.6442,20.0002,0.00442959,116.547,0.0011074,29.1367,NaN
19976.2,24.6637,20.0008,0.00450044,117.522,0.00112511,29.3805,NaN
20227.3,24.6652,19.9999,0.00458263,118.662,0.00114566,29.6656,NaN
20418.9,24.6539,19.9999,0.00464611,119.546,0.00116153,29.8866,NaN
20630.7,24.6689,19.9999,0.00471657,120.538,0.00117914,30.1345,NaN
20837,24.6675,19.9994,0.00478512,121.518,0.00119628,30.3794,NaN
21056.2,24.6927,19.9998,0.00485906,122.575,0.00121476,30.6438,NaN
21350,24.6839,19.9996,0.00495799,124.017,0.0012395,31.0042,NaN
21618.9,24.6869,19.9996,0.00504841,125.362,0.0012621,31.3406,NaN
21869.3,24.6893,19.9994,0.00513318,126.637,0.0012833,31.6592,NaN
22062,24.6754,19.9996,0.00519809,127.633,0.00129952,31.9082,NaN
22248.7,24.6863,20.0002,0.00526162,128.609,0.00131541,32.1523,NaN
22509.9,24.6512,19.9999,0.00535055,129.995,0.00133764,32.4987,NaN
22748.9,24.6755,19.9997,0.00543267,131.283,0.00135817,32.8208,NaN
23085.8,24.6861,20.0002,0.00554839,133.133,0.0013871,33.2834,NaN
23331.1,24.6958,19.9997,0.00563241,134.505,0.0014081,33.6262,NaN
23570,24.6848,20.0001,0.00571411,135.86,0.00142853,33.965,NaN
23790,24.6982,19.9998,0.00578938,137.125,0.00144735,34.2813,NaN
24086.8,24.7208,19.9999,0.00589106,138.859,0.00147276,34.7147,NaN
24405,24.726,19.9996,0.00599937,140.75,0.00149984,35.1876,NaN
24657.2,24.6942,19.9995,0.00608486,142.274,0.00152122,35.5686,NaN
24880,24.698,20,0.00616065,143.638,0.00154016,35.9096,NaN
25109,24.7062,20,0.00623788,145.058,0.00155947,36.2645,NaN
25378.8,24.6834,19.9993,0.00632832,146.753,0.00158208,36.6883,NaN
25642.5,24.6752,19.9999,0.00641669,148.433,0.00160417,37.1084,NaN
25893.1,24.7285,19.9993,0.00650006,150.052,0.00162501,37.513,NaN
26105.3,24.7115,20.0002,0.00656999,151.439,0.0016425,37.8597,NaN
26390.4,24.7271,19.9999,0.00666363,153.326,0.00166591,38.3314,NaN
26587.3,24.6885,20,0.00672742,154.643,0.00168185,38.6609,NaN
26798,24.7205,19.9999,0.00679548,156.068,0.00169887,39.017,NaN
27086.9,24.7083,19.9998,0.00688846,158.045,0.00172212,39.5112,NaN
27331.6,24.7018,20.0002,0.0069661,159.74,0.00174153,39.9349,NaN
27550.3,24.6911,19.9997,0.00703491,161.271,0.00175873,40.3178,NaN
27793.1,24.7349,19.9998,0.00711099,162.989,0.00177775,40.7472,NaN
28014.5,24.7163,19.9997,0.00717963,164.571,0.00179491,41.1427,NaN
28272.2,24.7549,19.9998,0.00725776,166.431,0.00181444,41.6077,NaN
28513.6,24.6963,19.9991,0.00732977,168.191,0.00183244,42.0478,NaN
28812.6,24.7656,19.9996,0.00741775,170.396,0.00185444,42.5991,NaN
29081.9,24.722,19.9996,0.00749631,172.405,0.00187408,43.1012,NaN
29374.3,24.7287,19.9997,0.00757934,174.608,0.00189483,43.6521,NaN
29596.8,24.7275,20.001,0.00764202,176.302,0.0019105,44.0755,NaN
29799.8,24.6922,20.0001,0.00769834,177.859,0.00192459,44.4648,NaN
30006.2,24.694,19.9999,0.00775557,179.453,0.00193889,44.8634,NaN
30193.4,24.6763,19.9994,0.00780659,180.911,0.00195165,45.2277,NaN
30475.1,24.657,19.9999,0.00788089,183.12,0.00197022,45.7801,NaN
30730.4,24.6449,19.9992,0.00794738,185.141,0.00198685,46.2852,NaN
31002.2,24.6196,19.9996,0.00801624,187.31,0.00200406,46.8275,NaN
31208.3,24.653,19.9994,0.00806696,188.967,0.00201674,47.2418,NaN
31461.5,24.636,20.0001,0.00812835,191.018,0.00203209,47.7544,NaN
31738.1,24.611,19.9993,0.0081938,193.275,0.00204845,48.3187,NaN
31974.1,24.5833,19.9996,0.00824742,195.215,0.00206185,48.8038,NaN
32248.3,24.5728,20,0.00830905,197.485,0.00207726,49.3713,NaN
32455.8,24.6029,19.9998,0.00835437,199.214,0.00208859,49.8036,NaN
32731.8,24.5987,19.9995,0.00841233,201.528,0.00210308,50.3821,NaN
32990.1,24.5518,19.9998,0.008465,203.707,0.00211625,50.9268,NaN
33194.2,24.5465,20.0002,0.00850585,205.44,0.00212646,51.3599,NaN
33478.4,24.5172,19.9996,0.00856138,207.865,0.00214034,51.9662,NaN
33734.7,24.5459,19.9999,0.00860879,210.065,0.0021522,52.5162,NaN
33979.6,24.5575,19.9998,0.00865241,212.179,0.0021631,53.0447,NaN
34227.4,24.5503,20.0001,0.00869476,214.328,0.00217369,53.5821,NaN
34439.7,24.5389,19.9998,0.00872978,216.178,0.00218244,54.0445,NaN
34712.9,24.5084,20,0.00877243,218.569,0.00219311,54.6423,NaN
34959.3,24.5068,19.9993,0.00881063,220.735,0.00220266,55.1838,NaN
35186.2,24.5226,20.0002,0.00884472,222.738,0.00221118,55.6844,NaN
35407.2,24.4914,19.9999,0.00887638,224.696,0.00221909,56.174,NaN
35635.1,24.5206,19.9992,0.00890779,226.723,0.00222695,56.6808,NaN
35855,24.5029,19.9996,0.00893662,228.685,0.00223415,57.1713,NaN
36075.9,24.4991,19.9995,0.00896461,230.662,0.00224115,57.6654,NaN
36378.8,24.4983,20,0.00900094,233.383,0.00225024,58.3457,NaN
36635.1,24.4965,19.999,0.00903005,235.694,0.00225751,58.9234,NaN
36912.1,24.4933,19.9999,0.00905991,238.199,0.00226498,59.5498,NaN
37151.6,24.4709,19.9995,0.00908421,240.371,0.00227105,60.0929,NaN
37479.2,24.4887,19.9999,0.0091148,243.353,0.0022787,60.8383,NaN
37760,24.4502,19.9997,0.00913978,245.916,0.00228494,61.4789,NaN
37964.3,24.467,19.9996,0.00915649,247.785,0.00228912,61.9462,NaN
38206.3,24.5102,19.9999,0.0091753,250.003,0.00229383,62.5006,NaN
38496.6,24.4659,19.9998,0.00919638,252.67,0.00229909,63.1674,NaN
38744.9,24.4502,19.9994,0.00921267,254.955,0.00230317,63.7389,NaN
39013.6,24.4433,19.9999,0.00922888,257.433,0.00230722,64.3582,NaN
39252.3,24.454,20.0001,0.00924216,259.637,0.00231054,64.9092,NaN
39450.6,24.434,20.0001,0.00925161,261.471,0.0023129,65.3677,NaN
39721.6,24.4374,19.9997,0.00926337,263.979,0.00231584,65.9949,NaN
39943.4,24.4166,20,0.00927254,266.035,0.00231814,66.5088,NaN
40164.7,24.4501,19.9995,0.00927986,268.089,0.00231996,67.0221,NaN
40411.6,24.4186,19.9997,0.00928719,270.38,0.0023218,67.5951,NaN
40674.2,24.4374,19.9994,0.00929447,272.82,0.00232362,68.205,NaN
40941.2,24.3917,19.9997,0.00929994,275.303,0.00232499,68.8257,NaN
41170.9,24.441,19.9998,0.00930326,277.44,0.00232581,69.3599,NaN
41438,24.4074,19.9999,0.00930628,279.925,0.00232657,69.9811,NaN
41692.7,24.4121,19.9994,0.00930802,282.295,0.00232701,70.5738,NaN
41971.2,24.4007,19.9996,0.0093095,284.888,0.00232738,71.2219,NaN
42208.7,24.4137,20,0.0093093,287.099,0.00232732,71.7747,NaN
42440.5,24.387,19.9998,0.00930722,289.257,0.00232681,72.3142,NaN
42665,24.4434,19.9996,0.00930461,291.346,0.00232615,72.8364,NaN
42918.3,24.4057,19.9999,0.00930134,293.702,0.00232533,73.4255,NaN
43125.8,24.3936,19.9998,0.00929755,295.632,0.00232439,73.908,NaN
43378.6,24.3836,19.9997,0.00929175,297.981,0.00232294,74.4954,NaN
43600.9,24.3919,19.9999,0.00928638,300.046,0.0023216,75.0116,NaN
43812.8,24.3831,19.9996,0.009281,302.014,0.00232025,75.5035,NaN
44055.5,24.4248,19.9998,0.00927359,304.265,0.0023184,76.0663,NaN
44357.5,24.3569,19.9997,0.00926377,307.064,0.00231594,76.7661,NaN
44700.7,24.3643,20.0001,0.00925181,310.242,0.00231295,77.5604,NaN
44888,24.3718,19.9994,0.00924549,311.974,0.00231137,77.9936,NaN
45147.7,24.3138,19.9998,0.00923581,314.374,0.00230895,78.5935,NaN
45375.2,24.3269,19.9996,0.00922734,316.474,0.00230684,79.1185,NaN
45656,24.336,19.9994,0.00921639,319.063,0.0023041,79.7658,NaN
45868.7,24.3456,20.0001,0.00920775,321.023,0.00230194,80.2556,NaN
46089.5,24.3821,19.9996,0.00919885,323.055,0.00229971,80.7637,NaN
46326.3,24.3634,20,0.00918969,325.232,0.00229742,81.3081,NaN
46541.8,24.3456,19.9996,0.00918136,327.211,0.00229534,81.8028,NaN
46825.1,24.3316,20,0.00917127,329.811,0.00229282,82.4528,NaN
47081.7,24.3145,19.9996,0.00916277,332.163,0.00229069,83.0408,NaN
47352.3,24.3661,20.0003,0.0091551,334.641,0.00228878,83.6604,NaN
47536.9,24.351,19.9996,0.00915105,336.332,0.00228776,84.083,NaN
47744.4,24.3328,19.9996,0.00914788,338.23,0.00228697,84.5575,NaN
47955.9,24.3206,20,0.00914647,340.164,0.00228662,85.0411,NaN
48135,24.294,19.9995,0.00914683,341.802,0.00228671,85.4506,NaN
48344.3,24.3472,19.9999,0.0091489,343.718,0.00228723,85.9294,NaN
48590.1,24.3165,19.9996,0.00915494,345.966,0.00228873,86.4916,NaN
48800.7,24.3161,19.9996,0.00916212,347.896,0.00229053,86.974,NaN
49041.3,24.3301,19.9998,0.00917287,350.101,0.00229322,87.5253,NaN
49223.2,24.3349,19.9998,0.00918187,351.771,0.00229547,87.9427,NaN
49445,24.322,19.9999,0.00919408,353.809,0.00229852,88.4521,NaN
49741.2,24.3339,19.9997,0.00921107,356.535,0.00230277,89.1337,NaN
49987.7,24.312,19.9999,0.00922452,358.807,0.00230613,89.7016,NaN
50256,24.3234,19.9992,0.00923824,361.283,0.00230956,90.3208,NaN
50514.2,24.3268,19.9999,0.00925,363.67,0.0023125,90.9175,NaN
50749.3,24.3186,19.9994,0.0092592,365.846,0.0023148,91.4614,NaN
50961.5,24.2968,20,0.009266,367.811,0.0023165,91.9528,NaN
51249,24.3514,19.9996,0.00927305,370.477,0.00231826,92.6192,NaN
51467.8,24.2951,19.9996,0.00927645,372.506,0.00231911,93.1264,NaN
51647.6,24.2678,20.0001,0.00927837,374.174,0.00231959,93.5436,NaN
51913.1,24.2884,20,0.00927932,376.637,0.00231983,94.1593,NaN
52155.2,24.3526,19.9995,0.00927936,378.884,0.00231984,94.721,NaN
52379.8,24.3119,19.9995,0.00927768,380.968,0.00231942,95.242,NaN
52574.5,24.2916,20.0001,0.00927517,382.775,0.00231879,95.6936,NaN
52803.8,24.2894,19.9997,0.00927129,384.901,0.00231782,96.2252,NaN
52962.2,24.288,20,0.00926763,386.369,0.00231691,96.5922,NaN
53232.4,24.3047,19.9999,0.00925978,388.872,0.00231495,97.218,NaN
53491.5,24.295,19.9997,0.0092507,391.27,0.00231267,97.8174,NaN
53701.6,24.2911,19.9997,0.00924318,393.213,0.0023108,98.3032,NaN
53992.5,24.3106,19.9992,0.00922989,395.9,0.00230747,98.975,NaN
54234.4,24.2939,20.0009,0.00921787,398.131,0.00230447,99.5327,NaN
54479.4,24.2953,20.0002,0.00920435,400.388,0.00230109,100.097,NaN
54668.9,24.3066,19.9999,0.00919336,402.131,0.00229834,100.533,NaN
54854.3,24.3046,19.9995,0.00918178,403.834,0.00229544,100.959,NaN
55077,24.2929,20,0.00916792,405.878,0.00229198,101.469,NaN
55342,24.2754,19.9998,0.00914897,408.305,0.00228724,102.076,NaN
55595.3,24.2727,19.9998,0.00912951,410.62,0.00228238,102.655,NaN
55897.2,24.273,20.0002,0.00910565,413.373,0.00227641,103.343,NaN
56110.1,24.2758,19.9994,0.00908929,415.309,0.00227232,103.827,NaN
56340.4,24.2489,19.9996,0.00906995,417.401,0.00226749,104.35,NaN
56622.3,24.2864,19.9995,0.00904443,419.953,0.00226111,104.988,NaN
56878.2,24.2579,19.9999,0.00902007,422.265,0.00225502,105.566,NaN
57150.1,24.2581,19.9997,0.00899393,424.714,0.00224848,106.179,NaN
57390.5,24.2556,19.9998,0.00897029,426.873,0.00224257,106.718,NaN
57592.1,24.2518,19.9996,0.00894957,428.68,0.00223739,107.17,NaN
57857.6,24.256,19.9995,0.00892166,431.052,0.00223041,107.763,NaN
58063.7,24.2325,19.9995,0.00890007,432.889,0.00222502,108.222,NaN
58408.9,24.2476,19.9996,0.008863,435.955,0.00221575,108.989,NaN
58667.3,24.2326,20,0.00883454,438.242,0.00220864,109.56,NaN
58944.6,24.2615,19.9999,0.00880242,440.687,0.0022006,110.172,NaN
59184.6,24.2455,20,0.00877386,442.796,0.00219347,110.699,NaN
59423.3,24.2642,19.9996,0.00874553,444.886,0.00218638,111.222,NaN
59643.2,24.2362,19.9999,0.0087185,446.806,0.00217963,111.702,NaN
59933.8,24.1894,19.9996,0.00868325,449.335,0.00217081,112.334,NaN
60156.9,24.2365,19.9996,0.008656,451.269,0.002164,112.817,NaN
60385.6,24.2551,19.9999,0.00862781,453.246,0.00215695,113.311,NaN
60592.1,24.2357,19.9997,0.00860381,455.025,0.00215095,113.756,NaN
60832.6,24.2596,20.0003,0.0085729,457.091,0.00214323,114.273,NaN
61087.3,24.2294,19.9998,0.00854093,459.27,0.00213523,114.817,NaN
61248.7,24.2244,20,0.00852049,460.647,0.00213012,115.162,NaN
61469.4,24.2355,19.9996,0.0084935,462.525,0.00212338,115.631,NaN
61737.8,24.2075,20.0001,0.0084598,464.799,0.00211495,116.2,NaN
61946.9,24.2517,19.9999,0.00843284,466.566,0.00210821,116.641,NaN
62185.1,24.2791,20.0001,0.00840189,468.571,0.00210047,117.143,NaN
62489.6,24.2469,19.9999,0.00836238,471.123,0.00209059,117.781,NaN
62781.7,24.2491,19.9999,0.00832459,473.56,0.00208115,118.39,NaN
63045.2,24.2303,19.9998,0.00829032,475.749,0.00207258,118.937,NaN
63336.4,24.1937,19.9993,0.00825228,478.158,0.00206307,119.539,NaN
63530.2,24.2389,19.9997,0.00822705,479.754,0.00205676,119.939,NaN
63755.8,24.2169,19.9996,0.00819792,481.607,0.00204948,120.402,NaN
63994.7,24.2195,19.9999,0.0081677,483.562,0.00204193,120.891,NaN
64229.2,24.2202,19.9999,0.00813833,485.474,0.00203458,121.368,NaN
64460.5,24.1994,20.0002,0.0081092,487.353,0.0020273,121.838,NaN
64712.7,24.2284,19.9998,0.00807709,489.395,0.00201927,122.349,NaN
64963.5,24.2454,19.9995,0.00804593,491.416,0.00201148,122.854,NaN
65164.9,24.188,19.9999,0.00802116,493.034,0.00200529,123.258,NaN
65410,24.225,19.9994,0.00799028,494.996,0.00199757,123.749,NaN
65673.5,24.231,20,0.00795763,497.097,0.00198941,124.274,NaN
65917.1,24.1876,19.9996,0.00792735,499.032,0.00198184,124.758,NaN
66142.9,24.2101,19.9998,0.00789973,500.819,0.00197493,125.205,NaN
66348.5,24.1962,20.0004,0.00787395,502.441,0.00196849,125.61,NaN
66527,24.1991,19.9996,0.00785152,503.844,0.00196288,125.961,NaN
66721.3,24.1898,19.9999,0.00782699,505.368,0.00195675,126.342,NaN
66962.9,24.2099,19.9994,0.00779698,507.255,0.00194924,126.814,NaN
67146,24.2428,19.9999,0.00777513,508.68,0.00194378,127.17,NaN
67377,24.1975,19.9997,0.0077487,510.473,0.00193717,127.618,NaN
67626.5,24.1839,19.9996,0.00771836,512.403,0.00192959,128.101,NaN
67793.4,24.1888,19.9995,0.00769867,513.689,0.00192467,128.422,NaN
67978.9,24.2292,19.9995,0.00767806,515.116,0.00191952,128.779,NaN
68218.5,24.2327,19.9996,0.00765344,516.953,0.00191336,129.238,NaN
68477.5,24.1925,19.9999,0.00762324,518.93,0.00190581,129.733,NaN
68718.5,24.2018,19.9997,0.0075954,520.764,0.00189885,130.191,NaN
68974.1,24.1771,19.9996,0.00756626,522.703,0.00189156,130.676,NaN
69217.7,24.1944,19.9997,0.00753849,524.542,0.00188462,131.135,NaN
69460.1,24.1877,20.0005,0.00751051,526.366,0.00187763,131.591,NaN
69675.9,24.1598,20.0001,0.00748623,527.984,0.00187156,131.996,NaN
69912.8,24.1679,20,0.00745925,529.754,0.00186481,132.439,NaN
70128.6,24.182,20.0002,0.00743468,531.362,0.00185867,132.84,NaN
70447.5,24.1779,19.9999,0.007399,533.727,0.00184975,133.432,NaN
70635.5,24.1472,20.0004,0.0073782,535.116,0.00184455,133.779,NaN
70918.6,24.1818,19.9996,0.00734738,537.2,0.00183684,134.3,NaN
71174.1,24.2029,20,0.0073199,539.074,0.00182997,134.769,NaN
71392.5,24.1669,20,0.00729619,540.67,0.00182405,135.168,NaN
71628.6,24.1507,19.9997,0.00727071,542.389,0.00181768,135.597,NaN
71934.7,24.1761,19.9994,0.00723829,544.61,0.00180957,136.153,NaN
72188.5,24.1895,20.0003,0.00721197,546.444,0.00180299,136.611,NaN
72445,24.1285,19.9995,0.00718507,548.291,0.00179627,137.073,NaN
72669.7,24.1289,19.9994,0.00716269,549.903,0.00179067,137.476,NaN
72909.3,24.1639,19.9997,0.00713813,551.615,0.00178453,137.904,NaN
73156.2,24.168,20.0004,0.00711238,553.375,0.0017781,138.344,NaN
73439.2,24.1856,19.9996,0.0070848,555.384,0.0017712,138.846,NaN
73695.6,24.1622,19.9998,0.00705934,557.197,0.00176484,139.299,NaN
73960.8,24.1656,19.9998,0.00703348,559.066,0.00175837,139.766,NaN
74157.1,24.1201,20,0.00701413,560.445,0.00175353,140.111,NaN
74380.8,24.1296,19.9996,0.0069927,562.011,0.00174817,140.503,NaN
74613.4,24.1306,19.9999,0.00697004,563.635,0.00174251,140.909,NaN
74903.7,24.1522,20.0001,0.00694139,565.654,0.00173535,141.414,NaN
75138.2,24.1596,19.9997,0.00691847,567.279,0.00172962,141.82,NaN
75301.5,24.1521,20.0001,0.00690238,568.408,0.0017256,142.102,NaN
75544.1,24.14,19.9996,0.00687893,570.079,0.00171973,142.52,NaN
75795,24.1122,19.9995,0.0068563,571.803,0.00171407,142.951,NaN
76016.9,24.1375,19.9998,0.00683609,573.322,0.00170902,143.33,NaN
76271.4,24.1423,19.9997,0.00681163,575.058,0.00170291,143.765,NaN
76518.3,24.1426,19.9996,0.00678788,576.738,0.00169697,144.184,NaN
76760.8,24.1434,19.9999,0.00676547,578.381,0.00169137,144.595,NaN
76948.2,24.1216,19.9998,0.00674811,579.647,0.00168703,144.912,NaN
77271.5,24.1496,19.9994,0.00671776,581.824,0.00167944,145.456,NaN
77551.8,24.1067,19.9998,0.00669228,583.703,0.00167307,145.926,NaN
77913.9,24.1169,19.9993,0.0066593,586.12,0.00166483,146.53,NaN
78169.4,24.104,19.9998,0.00663587,587.819,0.00165897,146.955,NaN
78433.7,24.1139,19.9992,0.00661123,589.569,0.00165281,147.392,NaN
78695.8,24.1402,19.9999,0.00658745,591.299,0.00164686,147.825,NaN
78868.3,24.1492,19.9999,0.0065718,592.434,0.00164295,148.108,NaN
79105.8,24.1289,20.0002,0.00655046,593.992,0.00163762,148.498,NaN
79409,24.112,19.9996,0.00652274,595.974,0.00163069,148.994,NaN
79699.2,24.1137,19.9996,0.00649669,597.863,0.00162417,149.466,NaN
80015,24.1475,20.0002,0.00646848,599.911,0.00161712,149.978,NaN
80225.4,24.1223,19.9994,0.00644906,601.27,0.00161227,150.317,NaN
80423.3,24.1066,19.9998,0.00643147,602.544,0.00160787,150.636,NaN
80595.1,24.1136,19.9999,0.00641613,603.648,0.00160403,150.912,NaN
80813.3,24.1449,19.9998,0.00639669,605.046,0.00159917,151.261,NaN
81032.6,24.1346,20,0.0063772,606.446,0.0015943,151.612,NaN
81207.9,24.1363,19.9999,0.0063617,607.563,0.00159042,151.891,NaN
81416.1,24.1543,19.9995,0.0063436,608.885,0.0015859,152.221,NaN
81733.7,24.1181,19.9997,0.00631598,610.896,0.001579,152.724,NaN
81923.5,24.1262,19.9993,0.00629956,612.093,0.00157489,153.023,NaN
82159.7,24.1473,19.9998,0.00627902,613.579,0.00156976,153.395,NaN
82410.3,24.1368,20.0002,0.00625787,615.149,0.00156447,153.787,NaN
82643.4,24.0976,19.9998,0.00623817,616.606,0.00155954,154.152,NaN
82909.2,24.1074,19.9995,0.0062153,618.261,0.00155382,154.565,NaN
83155.2,24.1305,19.9999,0.00619429,619.787,0.00154857,154.947,NaN
83341.4,24.1241,20.0002,0.00617896,620.939,0.00154474,155.235,NaN
83658.5,24.1004,19.9997,0.00615396,622.895,0.00153849,155.724,NaN
83931.9,24.1137,19.9995,0.00613143,624.574,0.00153286,156.143,NaN
84170.6,24.1792,19.9996,0.00611202,626.035,0.00152801,156.509,NaN
84407.3,24.1148,19.9999,0.00609318,627.48,0.00152329,156.87,NaN
84697.6,24.1205,20.0002,0.00607046,629.245,0.00151762,157.311,NaN
84916.6,24.1205,19.9999,0.00605372,630.573,0.00151343,157.643,NaN
85147.6,24.1296,19.9997,0.00603461,631.969,0.00150865,157.992,NaN
85417.8,24.1218,19.9998,0.00601258,633.596,0.00150314,158.399,NaN
85662.5,24.13,19.9997,0.00599291,635.065,0.00149823,158.766,NaN
85901.3,24.1391,19.9998,0.00597374,636.494,0.00149343,159.124,NaN
86120.3,24.1458,19.9993,0.00595671,637.801,0.00148918,159.45,NaN
86315.9,24.1429,20,0.00594092,638.964,0.00148523,159.741,NaN
86571.3,24.1532,19.9999,0.00592113,640.479,0.00148028,160.12,NaN
86799.5,24.109,19.9997,0.00590321,641.828,0.0014758,160.457,NaN
87010.5,24.1337,20,0.00588667,643.072,0.00147167,160.768,NaN
87224.7,24.1482,20,0.00587062,644.331,0.00146766,161.083,NaN
87471.7,24.1302,20,0.00585131,645.779,0.00146283,161.445,NaN
87750.3,24.1333,20,0.00582949,647.406,0.00145737,161.852,NaN
87962.4,24.1562,19.9996,0.00581332,648.641,0.00145333,162.16,NaN
88256.5,24.211,19.9998,0.00579166,650.347,0.00144792,162.587,NaN
88493.2,24.1318,19.9997,0.00577422,651.716,0.00144355,162.929,NaN
88772.3,24.1817,19.9999,0.00575322,653.325,0.00143831,163.331,NaN
89007.8,24.1793,19.9997,0.0057351,654.677,0.00143378,163.669,NaN
89229.7,24.1618,20,0.0057185,655.949,0.00142962,163.987,NaN
89472.6,24.1698,19.9998,0.00570062,657.335,0.00142515,164.334,NaN
89681,24.1621,19.9996,0.00568623,658.522,0.00142156,164.63,NaN
89863.1,24.1423,19.9998,0.00567388,659.556,0.00141847,164.889,NaN
90058.4,24.1795,20.0001,0.00566034,660.663,0.00141508,165.166,NaN
90314.2,24.1389,19.9992,0.00564249,662.108,0.00141062,165.527,NaN
90545.6,24.1773,19.9996,0.00562549,663.412,0.00140637,165.853,NaN
90762.8,24.16,19.9997,0.00560941,664.632,0.00140235,166.158,NaN
90985.9,24.1521,19.9998,0.00559366,665.882,0.00139842,166.47,NaN
91198.6,24.1726,19.9999,0.00557908,667.07,0.00139477,166.768,NaN
91393.5,24.1822,20.0002,0.00556553,668.156,0.00139138,167.039,NaN
91656.5,24.1929,19.9998,0.00554671,669.618,0.00138668,167.404,NaN
91932.3,24.1755,19.9998,0.00552637,671.145,0.00138159,167.786,NaN
92192.3,24.1809,19.9997,0.00550796,672.579,0.00137699,168.145,NaN
92400.1,24.1779,19.9997,0.00549347,673.722,0.00137337,168.431,NaN
92621.8,24.1754,19.9998,0.00547763,674.938,0.00136941,168.735,NaN
92858.2,24.1981,20.0002,0.00546132,676.231,0.00136533,169.058,NaN
93067.3,24.2007,19.9996,0.00544704,677.372,0.00136176,169.343,NaN
93291.4,24.1671,19.9999,0.0054317,678.591,0.00135792,169.648,NaN
93607.8,24.1721,19.9997,0.00541095,680.306,0.00135274,170.077,NaN
93838,24.2266,19.9995,0.00539539,681.55,0.00134885,170.387,NaN
94077.4,24.1864,19.9997,0.00537933,682.84,0.00134483,170.71,NaN
94246.7,24.1827,19.9996,0.00536783,683.749,0.00134196,170.937,NaN
94527.4,24.1717,19.9997,0.00534897,685.253,0.00133724,171.313,NaN
94812.4,24.1699,19.9996,0.00532996,686.775,0.00133249,171.694,NaN
95126.5,24.1906,19.9999,0.00530997,688.446,0.00132749,172.111,NaN
95389.8,24.1981,20.0001,0.00529301,689.842,0.00132325,172.46,NaN
95590.6,24.1548,19.9997,0.00528065,690.903,0.00132016,172.726,NaN
95830,24.2146,19.9994,0.00526568,692.166,0.00131642,173.041,NaN
96033.3,24.199,20,0.00525295,693.235,0.00131324,173.309,NaN
96236.2,24.1911,19.9998,0.00524062,694.3,0.00131016,173.575,NaN
96426.3,24.1903,20.0001,0.00522903,695.295,0.00130726,173.824,NaN
96689.9,24.1919,19.9998,0.00521341,696.671,0.00130335,174.168,NaN
96904.5,24.2279,20,0.00520036,697.789,0.00130009,174.447,NaN
97143.5,24.2132,19.9998,0.00518588,699.029,0.00129647,174.757,NaN
97365.5,24.1813,19.9998,0.00517241,700.179,0.0012931,175.045,NaN
97568.4,24.1818,20,0.00516032,701.228,0.00129008,175.307,NaN
97874.9,24.2039,19.9998,0.00514207,702.807,0.00128552,175.702,NaN
98125,24.1985,20.0002,0.0051275,704.091,0.00128187,176.023,NaN
98394.2,24.1924,19.9996,0.00511121,705.469,0.0012778,176.367,NaN
98662.8,24.2114,19.9997,0.00509505,706.839,0.00127376,176.71,NaN
98849.1,24.2055,19.9995,0.00508356,707.788,0.00127089,176.947,NaN
99063.5,24.199,19.9998,0.00507091,708.876,0.00126773,177.219,NaN
99367.2,24.1977,19.9995,0.0050526,710.413,0.00126315,177.603,NaN
99665.5,24.2092,19.9999,0.00503472,711.918,0.00125868,177.979,NaN
99947.9,24.1665,19.9996,0.0050187,713.337,0.00125467,178.334,NaN
100179,24.196,19.9993,0.00500551,714.495,0.00125138,178.624,NaN
100501,24.1778,19.9997,0.00498861,716.106,0.00124715,179.027,NaN
100766,24.1703,19.9998,0.00497507,717.427,0.00124377,179.357,NaN
100984,24.1959,19.9999,0.00496395,718.511,0.00124099,179.628,NaN
101185,24.1869,20.0002,0.00495355,719.507,0.00123839,179.877,NaN
101413,24.1586,20.0002,0.00494201,720.632,0.0012355,180.158,NaN
101700,24.158,20.0002,0.00492708,722.047,0.00123177,180.512,NaN
101926,24.177,19.9998,0.00491497,723.161,0.00122874,180.79,NaN
102263,24.1735,19.9997,0.00489633,724.816,0.00122408,181.204,NaN
102579,24.1713,19.9995,0.00487882,726.361,0.0012197,181.59,NaN
102822,24.1969,19.9998,0.00486499,727.543,0.00121625,181.886,NaN
103063,24.195,20,0.00485147,728.716,0.00121287,182.179,NaN
103310,24.1845,20.0007,0.00483698,729.911,0.00120925,182.478,NaN
103587,24.1735,19.9999,0.00482059,731.247,0.00120515,182.812,NaN
103877,24.1884,19.9998,0.00480361,732.645,0.0012009,183.161,NaN
104132,24.1836,19.9999,0.00478872,733.869,0.00119718,183.467,NaN
104332,24.195,20.0002,0.00477669,734.824,0.00119417,183.706,NaN
104559,24.2224,19.9998,0.00476371,735.906,0.00119093,183.977,NaN
104796,24.2291,19.9996,0.00474945,737.034,0.00118736,184.259,NaN
105026,24.2265,19.9999,0.00473596,738.123,0.00118399,184.531,NaN
105245,24.2116,20,0.00472279,739.159,0.0011807,184.79,NaN
105499,24.2853,19.9997,0.00470789,740.357,0.00117697,185.089,NaN
105728,24.3367,19.9999,0.00469437,741.435,0.00117359,185.359,NaN
106041,24.3376,20,0.00467701,742.902,0.00116925,185.726,NaN
106363,24.2802,19.9998,0.00465894,744.405,0.00116473,186.101,NaN
106676,24.2669,19.9999,0.00464048,745.859,0.00116012,186.465,NaN
106904,24.281,19.9997,0.00462582,746.918,0.00115645,186.73,NaN
107129,24.2494,20.0001,0.00461142,747.955,0.00115285,186.989,NaN
107420,24.2852,19.9999,0.00459256,749.293,0.00114814,187.323,NaN
107752,24.2889,19.9993,0.00457154,750.813,0.00114289,187.703,NaN
108021,24.2987,19.9996,0.00455453,752.043,0.00113863,188.011,NaN
108298,24.2675,19.9998,0.00453708,753.304,0.00113427,188.326,NaN
108508,24.2415,19.9997,0.00452371,754.251,0.00113093,188.563,NaN
108792,24.2678,19.9996,0.00450603,755.536,0.00112651,188.884,NaN
109048,24.2591,20,0.00449041,756.686,0.0011226,189.171,NaN
109241,24.2773,20.0001,0.00447883,757.551,0.00111971,189.388,NaN
109479,24.2534,20.0004,0.00446485,758.617,0.00111621,189.654,NaN
109740,24.2672,19.9997,0.00444905,759.779,0.00111226,189.945,NaN
110090,24.2752,19.9997,0.00442793,761.335,0.00110698,190.334,NaN
110397,24.25,20,0.00440958,762.692,0.0011024,190.673,NaN
110619,24.2548,19.9996,0.00439617,763.667,0.00109904,190.917,NaN
110880,24.2502,19.9997,0.00438066,764.811,0.00109517,191.203,NaN
111208,24.2046,19.9999,0.00436134,766.247,0.00109034,191.562,NaN
111444,24.2489,19.9995,0.00434726,767.275,0.00108681,191.819,NaN
111712,24.2539,20.0001,0.00433075,768.437,0.00108269,192.109,NaN
112084,24.2801,19.9999,0.00430816,770.043,0.00107704,192.511,NaN
112325,24.2516,19.9998,0.00429289,771.08,0.00107322,192.77,NaN
112575,24.2696,20.0001,0.00427733,772.151,0.00106933,193.038,NaN
112860,24.2671,19.9998,0.00425979,773.368,0.00106495,193.342,NaN
113072,24.2807,19.9994,0.00424673,774.272,0.00106168,193.568,NaN
113360,24.2438,19.9996,0.00422923,775.49,0.00105731,193.873,NaN
113638,24.2664,19.9995,0.00421262,776.663,0.00105316,194.166,NaN
113886,24.2693,19.9995,0.00419801,777.706,0.0010495,194.427,NaN
114133,24.268,19.9999,0.00418327,778.744,0.00104582,194.686,NaN
114401,24.3037,19.9987,0.00416743,779.861,0.00104186,194.965,NaN
114661,24.273,19.9997,0.00415152,780.941,0.00103788,195.235,NaN
114937,24.2388,19.9997,0.00413426,782.085,0.00103356,195.521,NaN
115163,24.2557,19.9999,0.00412006,783.018,0.00103001,195.755,NaN
115397,24.2918,19.9998,0.00410484,783.979,0.00102621,195.995,NaN
115666,24.2459,19.9998,0.00408746,785.083,0.00102187,196.271,NaN
115933,24.2394,20.0002,0.00407035,786.172,0.00101759,196.543,NaN
116147,24.2254,19.9999,0.00405621,787.041,0.00101405,196.76,NaN
116512,24.2382,20.0001,0.00403233,788.518,0.00100808,197.13,NaN
116866,24.2274,19.9999,0.00400881,789.941,0.0010022,197.485,NaN
117146,24.2198,19.9997,0.00399007,791.062,0.000997519,197.766,NaN
117446,24.2168,19.9996,0.00397022,792.255,0.000992555,198.064,NaN
117737,24.2079,20,0.00395131,793.408,0.000987827,198.352,NaN
117997,24.1923,19.9997,0.00393388,794.431,0.000983469,198.608,NaN
118257,24.2002,19.9992,0.00391682,795.451,0.000979205,198.863,NaN
118461,24.1872,20.0001,0.00390388,796.252,0.000975971,199.063,NaN
118688,24.1721,20,0.00388954,797.135,0.000972385,199.284,NaN
118905,24.206,19.9999,0.00387566,797.976,0.000968915,199.494,NaN
119208,24.195,19.9998,0.00385751,799.148,0.000964376,199.787,NaN
119433,24.1943,19.9998,0.00384409,800.016,0.000961023,200.004,NaN
119679,24.1889,19.9996,0.0038286,800.958,0.000957151,200.24,NaN
119921,24.2224,19.9996,0.00381395,801.883,0.000953488,200.471,NaN
120296,24.1843,19.9998,0.00379055,803.312,0.000947638,200.828,NaN
120557,24.1829,19.9995,0.00377468,804.297,0.000943671,201.074,NaN
120869,24.1856,19.9999,0.00375629,805.471,0.000939072,201.368,NaN
121091,24.1526,20.0005,0.00374362,806.304,0.000935904,201.576,NaN
121391,24.1978,20.0004,0.00372663,807.427,0.000931657,201.857,NaN
121672,24.1884,20.0001,0.00371072,808.468,0.000927681,202.117,NaN
121890,24.1494,19.9998,0.00369852,809.276,0.00092463,202.319,NaN
122113,24.1596,19.9991,0.00368611,810.101,0.000921527,202.525,NaN
122381,24.1697,20,0.00367089,811.087,0.000917722,202.772,NaN
122685,24.1666,19.9998,0.00365404,812.2,0.00091351,203.05,NaN
122952,24.166,20,0.00363928,813.172,0.000909819,203.293,NaN
123224,24.164,19.9998,0.00362477,814.161,0.000906192,203.54,NaN
123545,24.1664,19.9998,0.00360788,815.324,0.000901969,203.831,NaN
123796,24.1709,20,0.00359498,816.227,0.000898745,204.057,NaN
124056,24.1431,19.9997,0.00358054,817.16,0.000895135,204.29,NaN
124340,24.1618,19.9998,0.00356574,818.173,0.000891434,204.543,NaN
124602,24.1468,19.9996,0.00355222,819.107,0.000888055,204.777,NaN
124799,24.1623,19.9998,0.00354246,819.804,0.000885615,204.951,NaN
125010,24.1624,19.9999,0.003532,820.552,0.000883001,205.138,NaN
125289,24.1743,19.9998,0.00351857,821.534,0.000879643,205.384,NaN
125558,24.1506,20.0001,0.0035056,822.478,0.0008764,205.62,NaN
125889,24.1214,19.9997,0.00349056,823.638,0.00087264,205.909,NaN
126134,24.1424,20.0003,0.0034795,824.493,0.000869874,206.123,NaN
126408,24.1294,20,0.00346664,825.443,0.000866659,206.361,NaN
126626,24.1612,20.0003,0.00345644,826.198,0.00086411,206.55,NaN
126869,24.1018,20,0.00344497,827.035,0.000861243,206.759,NaN
127094,24.1536,20,0.00343489,827.809,0.000858721,206.952,NaN
127376,24.1529,19.9999,0.00342177,828.779,0.000855443,207.195,NaN
127617,24.1417,19.999,0.00341053,829.601,0.000852633,207.4,NaN
127867,24.1428,20.0002,0.00339892,830.452,0.00084973,207.613,NaN
128209,24.1213,20.0003,0.00338281,831.61,0.000845702,207.903,NaN
128398,24.1338,20.0001,0.00337421,832.249,0.000843553,208.062,NaN
128749,24.1666,19.9995,0.0033581,833.43,0.000839525,208.357,NaN
129052,24.118,19.9999,0.00334461,834.447,0.000836151,208.612,NaN
129366,24.1384,19.9999,0.00333039,835.496,0.000832598,208.874,NaN
129680,24.1471,20,0.0033168,836.54,0.0008292,209.135,NaN
129983,24.1346,19.9995,0.00330405,837.541,0.000826011,209.385,NaN
130281,24.0986,20,0.00329167,838.525,0.000822918,209.631,NaN
130501,24.133,19.9999,0.00328269,839.246,0.000820672,209.811,NaN
130746,24.1305,19.9997,0.00327317,840.05,0.000818292,210.013,NaN
131041,24.1374,19.9991,0.00326145,841.014,0.000815364,210.254,NaN
131268,24.1646,19.9995,0.0032524,841.754,0.000813099,210.439,NaN
131455,24.0818,19.9996,0.00324513,842.362,0.000811282,210.591,NaN
131679,24.1415,20,0.00323666,843.087,0.000809164,210.772,NaN
131937,24.1109,19.9998,0.00322731,843.922,0.000806826,210.98,NaN
132242,24.1105,19.9995,0.003216,844.903,0.000804001,211.226,NaN
132496,24.1047,20,0.00320665,845.719,0.000801662,211.43,NaN
132762,24.1051,20.0001,0.00319701,846.571,0.000799252,211.643,NaN
132995,24.1258,19.9997,0.00318833,847.316,0.000797081,211.829,NaN
133237,24.1053,19.9993,0.00317958,848.086,0.000794894,212.021,NaN
133482,24.1182,19.9999,0.00317012,848.865,0.000792529,212.216,NaN
133799,24.1133,19.9996,0.0031578,849.865,0.000789451,212.466,NaN
134072,24.0982,20.0002,0.00314739,850.728,0.000786849,212.682,NaN
134362,24.1073,20.0001,0.0031372,851.639,0.000784299,212.91,NaN
134684,24.0945,19.9995,0.00312613,852.646,0.000781533,213.162,NaN
134921,24.1076,20.0004,0.00311828,853.388,0.000779569,213.347,NaN
135167,24.1024,19.9997,0.00311088,854.154,0.000777721,213.538,NaN
135499,24.1059,19.9998,0.00310005,855.184,0.000775012,213.796,NaN
135743,24.0862,19.9998,0.00309262,855.94,0.000773156,213.985,NaN
135987,24.0577,20.0001,0.00308401,856.692,0.000771004,214.173,NaN
136315,24.0732,20.0002,0.003073,857.703,0.00076825,214.426,NaN
136559,24.0664,19.9995,0.00306421,858.451,0.000766053,214.613,NaN
136885,24.1008,19.9995,0.00305351,859.449,0.000763378,214.862,NaN
137166,24.0874,19.9996,0.00304481,860.306,0.000761203,215.076,NaN
137501,24.0905,19.9994,0.00303471,861.323,0.000758678,215.331,NaN
137809,24.0677,19.9998,0.00302514,862.257,0.000756285,215.564,NaN
138130,24.0573,19.9995,0.00301611,863.225,0.000754028,215.806,NaN
138351,24.0657,19.9995,0.00301013,863.892,0.000752532,215.973,NaN
138623,24.0787,19.9997,0.00300171,864.71,0.000750426,216.177,NaN
138934,24.0819,19.9997,0.0029924,865.641,0.0007481,216.41,NaN
139191,24.1018,19.9998,0.00298565,866.409,0.000746413,216.602,NaN
139427,24.0562,19.9997,0.00297857,867.114,0.000744642,216.779,NaN
139617,24.0653,19.9995,0.00297328,867.68,0.000743321,216.92,NaN
139783,24.0732,19.9996,0.00296866,868.173,0.000742166,217.043,NaN
140126,24.0656,20.0001,0.00295985,869.189,0.000739962,217.297,NaN
140399,24.0483,20.0005,0.00295241,869.995,0.000738102,217.499,NaN
140672,24.066,20,0.00294512,870.803,0.000736279,217.701,NaN
140919,24.078,19.9998,0.00293791,871.527,0.000734479,217.882,NaN
141232,24.0505,19.9998,0.00292872,872.447,0.000732179,218.112,NaN
141469,24.0728,19.9999,0.00292189,873.14,0.000730472,218.285,NaN
141816,24.0467,19.9999,0.00291236,874.151,0.000728089,218.538,NaN
142072,24.0808,19.9999,0.00290491,874.896,0.000726226,218.724,NaN
142303,24.057,19.9998,0.00289828,875.568,0.000724571,218.892,NaN
142592,24.0508,20.0003,0.00289019,876.404,0.000722547,219.101,NaN
142887,24.0528,19.9997,0.00288242,877.254,0.000720606,219.314,NaN
143181,24.0387,19.9994,0.00287474,878.099,0.000718685,219.525,NaN
143427,24.0549,19.9997,0.00286834,878.808,0.000717085,219.702,NaN
143732,24.0442,19.9998,0.00286091,879.68,0.000715226,219.92,NaN
143946,24.0474,19.9995,0.00285612,880.291,0.00071403,220.073,NaN
144160,24.056,19.9996,0.00285086,880.904,0.000712715,220.226,NaN
144403,24.0512,19.9996,0.0028448,881.594,0.0007112,220.399,NaN
144671,24.0078,20.0004,0.00283811,882.355,0.000709527,220.589,NaN
144843,24.025,19.9991,0.00283456,882.846,0.000708639,220.711,NaN
145194,24.0323,20.0006,0.00282562,883.838,0.000706404,220.96,NaN
145466,24.0336,20.0001,0.00281947,884.605,0.000704867,221.151,NaN
145666,24.0132,20,0.00281449,885.168,0.000703623,221.292,NaN
145935,24.0222,19.9996,0.00280706,885.924,0.000701766,221.481,NaN
146202,24.0399,20,0.00280016,886.674,0.00070004,221.668,NaN
146463,24.0359,19.9994,0.00279375,887.402,0.000698438,221.851,NaN
146647,24.0154,19.9997,0.00278938,887.916,0.000697346,221.979,NaN
146926,24.0135,19.9999,0.00278237,888.696,0.000695592,222.174,NaN
147167,23.987,20,0.0027768,889.365,0.0006942,222.341,NaN
147395,24.0228,19.9999,0.00277112,889.998,0.000692781,222.499,NaN
147689,24.032,20.0003,0.00276434,890.809,0.000691084,222.702,NaN
147947,23.9813,20.0001,0.00275775,891.524,0.000689438,222.881,NaN
148180,24.022,19.9998,0.00275251,892.165,0.000688126,223.041,NaN
148485,24.0075,19.9997,0.00274644,893.004,0.00068661,223.251,NaN
148788,24.0132,19.9996,0.00274038,893.834,0.000685095,223.458,NaN
148978,24.0119,19.9997,0.0027365,894.354,0.000684124,223.589,NaN
149219,23.9946,19.9996,0.00273242,895.015,0.000683105,223.754,NaN
149441,24.0376,19.9998,0.00272825,895.619,0.000682063,223.905,NaN
149831,24.0296,20.0003,0.00272081,896.683,0.000680203,224.171,NaN
150137,24.0014,19.9999,0.00271476,897.513,0.000678691,224.378,NaN
150399,23.9996,19.9998,0.0027097,898.225,0.000677425,224.556,NaN
150665,23.971,19.9997,0.00270472,898.946,0.00067618,224.736,NaN
150929,24.0023,19.9999,0.00269993,899.659,0.000674983,224.915,NaN
151210,23.9875,20.0003,0.0026939,900.415,0.000673476,225.104,NaN
151477,23.9808,19.9996,0.00268886,901.135,0.000672215,225.284,NaN
151761,23.9805,19.9998,0.00268305,901.897,0.000670762,225.474,NaN
151993,24.0062,19.9998,0.00267718,902.519,0.000669296,225.63,NaN
152191,23.9793,19.9997,0.00267281,903.048,0.000668202,225.762,NaN
152434,23.9808,19.9999,0.00266641,903.698,0.000666603,225.925,NaN
152670,24.0085,19.9999,0.00266081,904.327,0.000665203,226.082,NaN
152948,23.9907,19.9996,0.00265463,905.064,0.000663658,226.266,NaN
153223,24.009,19.9995,0.00264886,905.795,0.000662216,226.449,NaN
153551,23.9915,19.9996,0.00264254,906.662,0.000660634,226.665,NaN
153823,23.9638,19.9999,0.00263704,907.381,0.000659261,226.845,NaN
154084,23.9667,20,0.00263178,908.069,0.000657944,227.017,NaN
154362,23.9568,20,0.00262672,908.798,0.000656681,227.2,NaN
154583,23.9609,19.9999,0.00262255,909.378,0.000655638,227.344,NaN
154793,23.9757,19.9996,0.00261827,909.93,0.000654566,227.482,NaN
155126,23.9601,19.9997,0.00261268,910.801,0.00065317,227.7,NaN
155418,24.0018,20,0.00260767,911.563,0.000651918,227.891,NaN
155734,23.953,19.9995,0.00260202,912.385,0.000650505,228.096,NaN
156048,23.9709,19.9996,0.00259611,913.201,0.000649028,228.3,NaN
156336,23.9526,19.9999,0.0025906,913.949,0.000647651,228.487,NaN
156562,23.9575,19.9999,0.00258669,914.534,0.000646672,228.633,NaN
156847,23.9577,19.9995,0.00258048,915.27,0.000645119,228.818,NaN
157115,23.8889,19.9998,0.00257522,915.96,0.000643805,228.99,NaN
157391,23.9396,19.9996,0.00256989,916.67,0.000642473,229.167,NaN
157626,23.9432,19.9995,0.00256607,917.274,0.000641517,229.318,NaN
157854,23.918,19.9998,0.0025618,917.858,0.00064045,229.464,NaN
158052,23.9404,19.9997,0.00255781,918.365,0.000639452,229.591,NaN
158308,23.8775,20.0002,0.00255301,919.019,0.000638253,229.755,NaN
158602,23.9396,20.0001,0.00254794,919.769,0.000636984,229.942,NaN
158900,23.9188,19.9996,0.00254231,920.529,0.000635577,230.132,NaN
159177,23.9121,19.9997,0.0025377,921.231,0.000634425,230.308,NaN
159453,23.9098,19.9999,0.00253246,921.932,0.000633116,230.483,NaN
159734,23.9082,19.9997,0.0025272,922.643,0.000631801,230.661,NaN
159949,23.9047,19.9993,0.00252376,923.185,0.00063094,230.796,NaN
160240,23.9089,19.9998,0.00251904,923.92,0.000629761,230.98,NaN
160440,23.8909,20.0001,0.00251584,924.423,0.000628961,231.106,NaN
160685,23.9104,20,0.00251231,925.038,0.000628078,231.259,NaN
160963,23.8731,20.0005,0.00250867,925.737,0.000627168,231.434,NaN
161308,23.9341,20.0003,0.00250391,926.601,0.000625977,231.65,NaN
161545,23.8969,20.0002,0.00250062,927.194,0.000625155,231.799,NaN
161780,23.8529,19.9999,0.00249716,927.781,0.000624289,231.945,NaN
161962,23.8769,19.9996,0.00249447,928.236,0.000623619,232.059,NaN
162272,23.8931,19.9991,0.00248925,929.009,0.000622312,232.252,NaN
162537,23.8696,19.9998,0.00248514,929.666,0.000621284,232.417,NaN
162814,23.8726,19.9995,0.0024806,930.354,0.00062015,232.588,NaN
163073,23.8783,20.0001,0.00247729,930.996,0.000619322,232.749,NaN
163423,23.8922,20,0.00247242,931.863,0.000618105,232.966,NaN
163604,23.8911,19.9997,0.00247008,932.31,0.000617521,233.078,NaN
163831,23.8451,19.9999,0.00246753,932.871,0.000616882,233.218,NaN
164122,23.8473,19.9997,0.00246368,933.587,0.00061592,233.397,NaN
164450,23.851,19.9995,0.00245929,934.396,0.000614822,233.599,NaN
164701,23.8717,20.0004,0.00245601,935.014,0.000614003,233.753,NaN
164937,23.867,19.9995,0.00245246,935.591,0.000613116,233.898,NaN
165179,23.8966,20,0.00244896,936.186,0.00061224,234.046,NaN
165472,23.8971,19.9996,0.00244556,936.901,0.000611391,234.225,NaN
165695,23.8672,19.9995,0.0024429,937.447,0.000610726,234.362,NaN
165981,23.8441,20.0002,0.00243917,938.145,0.000609794,234.536,NaN
166237,23.838,19.9996,0.00243616,938.77,0.000609039,234.692,NaN
166576,23.8562,19.9999,0.00243191,939.593,0.000607977,234.898,NaN
166800,23.8582,19.9998,0.00242991,940.139,0.000607478,235.035,NaN
167082,23.8535,19.9999,0.00242686,940.822,0.000606714,235.206,NaN
167348,23.8582,19.9999,0.00242359,941.469,0.000605898,235.367,NaN
167622,23.8368,19.9997,0.00241968,942.131,0.000604919,235.533,NaN
167844,23.7995,19.9996,0.00241687,942.668,0.000604217,235.667,NaN
168090,23.8354,20,0.00241314,943.264,0.000603285,235.816,NaN
168364,23.7971,19.9999,0.00240945,943.924,0.000602362,235.981,NaN
168622,23.8309,20.0002,0.00240697,944.544,0.000601743,236.136,NaN
168893,23.8272,19.9997,0.00240441,945.196,0.000601103,236.299,NaN
169158,23.8393,19.9995,0.00240217,945.833,0.000600541,236.458,NaN
169354,23.8729,19.9996,0.00240112,946.306,0.00060028,236.576,NaN
169656,23.8211,19.9997,0.00239904,947.03,0.000599761,236.757,NaN
169893,23.841,19.9999,0.00239717,947.598,0.000599293,236.9,NaN
170086,23.8372,19.9994,0.00239535,948.061,0.000598838,237.015,NaN
170337,23.8645,19.9999,0.00239257,948.66,0.000598142,237.165,NaN
170555,23.8718,19.9996,0.00239076,949.182,0.000597689,237.295,NaN
170808,23.8371,19.9997,0.00238793,949.787,0.000596983,237.447,NaN
171079,23.8324,19.9997,0.00238468,950.434,0.00059617,237.608,NaN
171344,23.8652,19.9999,0.00238205,951.065,0.000595512,237.766,NaN
171537,23.887,19.9994,0.00238013,951.526,0.000595032,237.881,NaN
171792,23.8799,19.9995,0.00237808,952.13,0.000594521,238.033,NaN
172040,23.8813,19.9998,0.00237565,952.721,0.000593913,238.18,NaN
172344,23.8738,19.9999,0.002373,953.442,0.000593249,238.361,NaN
172591,23.8644,20,0.00237037,954.028,0.000592592,238.507,NaN
172821,23.8724,20,NaN,NaN,NaN,NaN,NaN
173147,23.8965,19.9999,NaN,NaN,NaN,NaN,NaN
173397,23.9105,19.9995,NaN,NaN,NaN,NaN,NaN
173723,23.8915,19.9994,NaN,NaN,NaN,NaN,NaN
174051,23.8942,19.9999,NaN,NaN,NaN,NaN,NaN
174391,23.8847,19.9995,NaN,NaN,NaN,NaN,NaN
174621,23.9279,19.9999,NaN,NaN,NaN,NaN,NaN
175078,23.9093,19.9994,NaN,NaN,NaN,NaN,NaN
175534,23.9122,20,NaN,NaN,NaN,NaN,NaN
175925,23.9241,19.9998,NaN,NaN,NaN,NaN,NaN
176360,23.9042,20.0002,NaN,NaN,NaN,NaN,NaN
176639,23.9276,20,NaN,NaN,NaN,NaN,NaN
177016,23.9425,19.9999,NaN,NaN,NaN,NaN,NaN
177287,23.9288,19.9998,NaN,NaN,NaN,NaN,NaN
177571,23.9427,20.0005,NaN,NaN,NaN,NaN,NaN
177896,23.9557,19.9998,NaN,NaN,NaN,NaN,NaN
178266,23.951,19.9999,NaN,NaN,NaN,NaN,NaN
178610,23.9428,19.9991,NaN,NaN,NaN,NaN,NaN
178913,23.9639,19.9993,NaN,NaN,NaN,NaN,NaN
179410,23.9511,19.9998,NaN,NaN,NaN,NaN,NaN
179900,23.9487,19.9994,NaN,NaN,NaN,NaN,NaN
180130,23.9838,20,NaN,NaN,NaN,NaN,NaN
180494,23.9735,19.9999,NaN,NaN,NaN,NaN,NaN
180758,23.9756,20.0002,NaN,NaN,NaN,NaN,NaN
180988,23.9585,19.9993,NaN,NaN,NaN,NaN,NaN
181268,23.9773,20,NaN,NaN,NaN,NaN,NaN
181633,23.9876,19.9994,NaN,NaN,NaN,NaN,NaN
181893,23.9537,19.9998,NaN,NaN,NaN,NaN,NaN
182275,24.0146,19.9997,NaN,NaN,NaN,NaN,NaN
182727,23.9968,20.0001,NaN,NaN,NaN,NaN,NaN
183007,24.0288,19.9997,NaN,NaN,NaN,NaN,NaN
183254,23.9997,20,NaN,NaN,NaN,NaN,NaN
183653,24.017,19.9997,NaN,NaN,NaN,NaN,NaN
183902,24.0149,19.9998,NaN,NaN,NaN,NaN,NaN
184175,24.0296,20,NaN,NaN,NaN,NaN,NaN
184495,23.9926,19.9998,NaN,NaN,NaN,NaN,NaN
184754,24.0131,19.9996,NaN,NaN,NaN,NaN,NaN
185044,24.0466,19.9998,NaN,NaN,NaN,NaN,NaN
185382,24.1075,20.0002,NaN,NaN,NaN,NaN,NaN
185728,24.1636,19.9999,NaN,NaN,NaN,NaN,NaN
186020,24.168,20.0001,NaN,NaN,NaN,NaN,NaN
186308,24.2285,20.0002,NaN,NaN,NaN,NaN,NaN