File: TAInstCalorimetry/DATA/myexp1.csv
Time,Temperature [AmbientT(Therm3T)],Temperature [Temperature],Heat flow [Signal],Heat [Signal],Normalized heat flow [Signal],Normalized heat [Signal],Time markers
0.0,25.2783,20,NaN,NaN,NaN,NaN,Reaction start
33.7452,25.2783,19.9999,0.00443777,0.0173748,0.000554722,0.00217185,NaN
77.7452,25.2783,20.0006,0.0689815,1.57033,0.00862269,0.196291,NaN
120.245,25.271,20,0.113731,5.56784,0.0142163,0.69598,NaN
180.151,25.3162,20.0002,0.137461,13.2427,0.0171827,1.65534,NaN
259.745,25.3182,20.0001,0.141724,24.4691,0.0177155,3.05863,NaN
445.547,25.2995,20,0.131035,49.8045,0.0163794,6.22557,NaN
574.433,25.3445,20.0002,0.120126,66.1042,0.0150158,8.26302,NaN
700.62,25.3614,20.0001,0.100512,80.0703,0.0125641,10.0088,NaN
850.745,25.3747,20,0.0773001,93.3672,0.00966252,11.6709,NaN
1019.78,25.3462,20.0001,0.0570477,104.63,0.00713097,13.0788,NaN
1165.12,25.3116,19.9998,0.0443167,111.951,0.00553959,13.9939,NaN
1373.57,25.345,19.9996,0.0315767,119.767,0.00394709,14.9709,NaN
1592.5,25.2827,19.9996,0.0228857,125.66,0.00286071,15.7075,NaN
1829.06,25.3011,19.9999,0.0168316,130.305,0.00210395,16.2881,NaN
2131.01,25.2923,20.0001,0.0120656,134.605,0.00150821,16.8256,NaN
2456.74,25.2809,19.9994,0.00901273,137.995,0.00112659,17.2494,NaN
2798.62,25.2785,20,0.00707619,140.718,0.000884523,17.5898,NaN
3202.87,25.2624,19.9998,0.00569323,143.275,0.000711654,17.9094,NaN
3723.92,25.2442,19.9995,0.00466422,145.948,0.000583027,18.2435,NaN
4203.38,25.2737,19.9996,0.00410015,148.039,0.000512519,18.5049,NaN
4827.18,25.2104,20,0.00364383,150.442,0.000455479,18.8053,NaN
5505.93,25.2294,19.9999,0.00334786,152.806,0.000418483,19.1007,NaN
6101.05,25.2505,20,0.00319383,154.749,0.000399228,19.3436,NaN
6884.79,25.2075,19.9999,0.00309045,157.205,0.000386306,19.6506,NaN
7522.53,25.2591,20,0.00306501,159.166,0.000383126,19.8957,NaN
8136.7,25.2233,20.0001,0.00306195,161.047,0.000382744,20.1309,NaN
8738.78,25.2319,19.9998,0.00312631,162.9,0.000390789,20.3625,NaN
9354.07,25.2243,19.9999,0.00340387,164.903,0.000425484,20.6129,NaN
9873.81,25.2257,19.9998,0.00366414,166.74,0.000458017,20.8425,NaN
10472.3,25.2528,20,0.00393935,169.017,0.000492419,21.1271,NaN
11242.7,25.2441,19.9999,0.00427632,172.182,0.000534539,21.5227,NaN
11867.5,25.2645,19.9999,0.00455367,174.939,0.000569209,21.8674,NaN
12520.7,25.2972,19.9997,0.00485578,178.012,0.000606973,22.2515,NaN
13104,25.2587,20.0003,0.00513733,180.926,0.000642167,22.6157,NaN
13711.5,25.2813,19.9998,0.00544378,184.139,0.000680473,23.0174,NaN
14423.9,25.2444,19.9989,0.00582013,188.15,0.000727516,23.5188,NaN
14935.6,25.1955,19.9997,0.00610135,191.2,0.000762668,23.9,NaN
15513.2,25.2179,19.9997,0.006428,194.819,0.0008035,24.3523,NaN
16236.2,25.2198,20,0.00685249,199.618,0.000856561,24.9522,NaN
16741.4,25.1968,20.0001,0.00715877,203.157,0.000894846,25.3946,NaN
17366,25.2372,20,0.00754825,207.749,0.000943531,25.9686,NaN
17991.2,25.1991,19.9997,0.0079493,212.593,0.000993663,26.5741,NaN
18602.8,25.216,19.9998,0.0083512,217.577,0.0010439,27.1971,NaN
19161.1,25.2265,19.9995,0.00872734,222.344,0.00109092,27.793,NaN
19849.1,25.195,19.9996,0.0091985,228.511,0.00114981,28.5639,NaN
20559.5,25.1932,20,0.00969644,235.222,0.00121206,29.4027,NaN
21173.9,25.159,20.0002,0.010134,241.313,0.00126675,30.1641,NaN
21821.4,25.1837,19.9999,0.0106001,248.026,0.00132501,31.0032,NaN
22438,25.1573,19.9999,0.0110486,254.699,0.00138108,31.8374,NaN
22945.8,25.1946,19.9999,0.011419,260.404,0.00142737,32.5505,NaN
23681.3,25.1766,20,0.0119561,269,0.00149451,33.625,NaN
24420.1,25.1711,19.9993,0.0124968,278.033,0.00156209,34.7542,NaN
25021.9,25.1478,19.9997,0.0129327,285.686,0.00161658,35.7108,NaN
25662.6,25.1695,19.9999,0.0133904,294.119,0.0016738,36.7649,NaN
26208.9,25.1179,19.9994,0.0137739,301.538,0.00172174,37.6923,NaN
26776.2,25.1457,20,0.0141649,309.464,0.00177061,38.683,NaN
27365.7,25.097,20,0.0145623,317.932,0.00182029,39.7415,NaN
28043.3,25.1265,20,0.0150054,327.95,0.00187567,40.9938,NaN
28674.3,25.1219,20.0001,0.0154021,337.545,0.00192526,42.1931,NaN
29321.5,25.1088,19.9994,0.0157938,347.641,0.00197423,43.4551,NaN
30037.5,25.096,19.9999,0.0162024,359.097,0.0020253,44.8871,NaN
30674.4,25.0848,19.9997,0.0165429,369.526,0.00206786,46.1907,NaN
31413.9,25.0857,19.9997,0.0169122,381.898,0.00211402,47.7372,NaN
31955.2,25.1101,19.9999,0.0171626,391.121,0.00214533,48.8901,NaN
32730.7,24.9867,19.9999,0.0174939,404.562,0.00218673,50.5702,NaN
33213.8,25.0537,19.9998,0.0176828,413.058,0.00221035,51.6323,NaN
33821.5,25.0525,19.9999,0.0179018,423.872,0.00223773,52.984,NaN
34419.5,25.1129,20.0003,0.0180969,434.637,0.00226211,54.3296,NaN
34986.5,25.0414,19.9999,0.0182632,444.945,0.0022829,55.6181,NaN
35618.7,25.0572,19.9995,0.0184287,456.545,0.00230358,57.0681,NaN
36298,25.0722,19.9998,0.018583,469.116,0.00232287,58.6395,NaN
36953.6,25.1106,20.0002,0.0187104,481.343,0.0023388,60.1678,NaN
37551.5,25.0751,19.9997,0.0188079,492.559,0.00235099,61.5699,NaN
38212.1,25.0903,19.9999,0.0188948,505.015,0.00236185,63.1269,NaN
38909.7,25.0239,19.9996,0.0189639,518.222,0.00237049,64.7777,NaN
39545.3,25.081,19.9997,0.0190124,530.29,0.00237655,66.2862,NaN
40199.2,25.0725,20.0004,0.019041,542.732,0.00238012,67.8415,NaN
40801.2,25.0769,19.9996,0.0190529,554.201,0.00238161,69.2751,NaN
41317.7,25.0857,19.9996,0.0190506,564.041,0.00238132,70.5051,NaN
41863,25.099,20.0001,0.0190367,574.425,0.00237958,71.8031,NaN
42385.1,25.0743,20,0.0190141,584.36,0.00237677,73.0451,NaN
43105.5,25.0868,19.9996,0.0189683,598.043,0.00237104,74.7553,NaN
43904,25.0805,20,0.0189002,613.161,0.00236252,76.6451,NaN
44559.7,25.0648,19.9993,0.0188304,625.533,0.0023538,78.1917,NaN
45179.4,25.1041,20.0002,0.0187556,637.179,0.00234445,79.6474,NaN
45895.9,25.081,19.9999,0.0186603,650.584,0.00233254,81.323,NaN
46514.6,25.0707,19.9998,0.0185734,662.102,0.00232167,82.7627,NaN
47238.9,25.0632,19.9995,0.0184715,675.517,0.00230894,84.4396,NaN
47876.1,25.0817,20.0005,0.0183894,687.261,0.00229867,85.9076,NaN
48614.1,25.058,19.9996,0.0183233,700.806,0.00229041,87.6007,NaN
49186.1,25.0756,19.9997,0.0183184,711.281,0.0022898,88.9101,NaN
49966.5,25.0455,19.9996,0.0183972,725.602,0.00229965,90.7003,NaN
50615.7,25.0733,19.9997,0.0184914,737.578,0.00231143,92.1972,NaN
51338.1,25.0329,20.0001,0.0185623,750.964,0.00232029,93.8705,NaN
51950.6,25.059,20,0.018594,762.343,0.00232425,95.2929,NaN
52454.5,25.0634,19.9999,0.0186073,771.718,0.00232592,96.4647,NaN
53092.5,25.0164,20,0.0186057,783.589,0.00232572,97.9486,NaN
53762,25.0124,19.9998,0.0185837,796.04,0.00232296,99.505,NaN
54426.1,25.0487,20.0001,0.0185405,808.368,0.00231756,101.046,NaN
55104.4,24.9935,19.9997,0.0184759,820.923,0.00230949,102.615,NaN
55842.6,24.9897,19.9994,0.0183852,834.53,0.00229815,104.316,NaN
56431.3,24.9917,20,0.0182978,845.329,0.00228722,105.666,NaN
56994,25.0154,20,0.0182037,855.599,0.00227546,106.95,NaN
57593.1,25.0116,19.9999,0.0180918,866.471,0.00226147,108.309,NaN
58214.4,25.0014,19.9997,0.0179648,877.672,0.0022456,109.709,NaN
58789.9,25.0361,19.9999,0.0178387,887.975,0.00222984,110.997,NaN
59485,24.9958,19.9996,0.0176775,900.32,0.00220969,112.54,NaN
60074.8,24.9784,19.9998,0.0175347,910.704,0.00219184,113.838,NaN
60807.7,24.9458,19.9997,0.0173505,923.488,0.00216881,115.436,NaN
61352.1,24.9623,19.9997,0.0172104,932.895,0.0021513,116.612,NaN
62077.6,24.9173,20.0001,0.0170208,945.314,0.0021276,118.164,NaN
62617.8,24.9529,19.9997,0.0168786,954.47,0.00210983,119.309,NaN
63260,24.9778,19.9999,0.0167091,965.254,0.00208864,120.657,NaN
63985.7,25.0029,19.9998,0.0165179,977.311,0.00206473,122.164,NaN
64477.4,24.9966,19.9998,0.0163896,985.401,0.00204871,123.175,NaN
65184,24.9708,19.9994,0.0162069,996.917,0.00202586,124.615,NaN
65768.4,24.9376,19.9998,0.0160579,1006.35,0.00200723,125.793,NaN
66327.2,24.9415,19.9998,0.0159161,1015.28,0.00198952,126.91,NaN
67088.7,24.9182,19.9997,0.0157266,1027.33,0.00196583,128.416,NaN
67692.1,24.936,19.9994,0.01558,1036.77,0.0019475,129.596,NaN
68270.3,24.9409,19.9999,0.0154424,1045.74,0.00193029,130.718,NaN
68912.7,24.9381,19.9996,0.0152919,1055.61,0.00191149,131.952,NaN
69467.4,24.9057,19.9994,0.0151647,1064.06,0.00189559,133.007,NaN
70099.6,24.9229,20,0.0150236,1073.6,0.00187795,134.2,NaN
70724.3,24.8617,19.9998,0.0148875,1082.94,0.00186093,135.368,NaN
71367.5,24.9161,19.9998,0.0147504,1092.47,0.0018438,136.559,NaN
72012,24.9302,19.9998,0.0146166,1101.94,0.00182708,137.742,NaN
72723.4,24.8746,20,0.0144722,1112.28,0.00180902,139.036,NaN
73379.7,24.8864,19.9994,0.0143423,1121.74,0.00179279,140.218,NaN
74033.7,24.8735,19.9996,0.0142156,1131.08,0.00177695,141.385,NaN
74713.2,24.8356,19.9996,0.014087,1140.69,0.00176087,142.587,NaN
75378.1,24.8534,19.9998,0.0139657,1150.02,0.00174571,143.752,NaN
76091.7,24.8762,19.9999,0.0138369,1159.94,0.00172961,144.993,NaN
76694.9,24.8595,20.0001,0.0137284,1168.25,0.00171605,146.032,NaN
77317.5,24.8863,19.9997,0.0136185,1176.77,0.00170231,147.096,NaN
77814,24.8543,20.0002,0.0135318,1183.51,0.00169148,147.938,NaN
78517.6,24.8396,20.0001,0.0134107,1192.99,0.00167633,149.123,NaN
79116.4,24.8401,19.9997,0.0133083,1200.98,0.00166354,150.123,NaN
79760.4,24.8148,19.9995,0.0131991,1209.52,0.00164989,151.19,NaN
80418.6,24.8326,19.9999,0.0130883,1218.17,0.00163604,152.271,NaN
81141.6,24.869,19.9995,0.0129679,1227.59,0.00162099,153.449,NaN
81867.1,24.8694,20,0.0128479,1236.96,0.00160599,154.62,NaN
82398.1,24.9212,19.9999,0.0127614,1243.75,0.00159517,155.469,NaN
83070.4,24.8252,19.9998,0.0126529,1252.3,0.00158161,156.537,NaN
83675.5,24.8463,19.9996,0.0125568,1259.92,0.00156961,157.491,NaN
84320.6,24.8175,19.9998,0.0124558,1267.99,0.00155698,158.499,NaN
84949.3,24.8718,19.9996,0.012359,1275.79,0.00154487,159.474,NaN
85727,24.8111,20,0.012241,1285.36,0.00153012,160.67,NaN
86320.9,24.8728,19.9997,0.0121523,1292.6,0.00151904,161.575,NaN
86912.3,24.8552,19.9997,0.0120652,1299.76,0.00150815,162.47,NaN
87496.6,24.8177,20.0001,0.0119807,1306.79,0.00149759,163.348,NaN
88071.4,24.8865,20.0005,0.011898,1313.65,0.00148725,164.206,NaN
88720.5,24.8692,20,0.0118066,1321.34,0.00147583,165.168,NaN
89390.3,24.8803,19.9997,0.011715,1329.22,0.00146438,166.153,NaN
89988,24.8184,19.9997,0.0116339,1336.2,0.00145424,167.025,NaN
90562.7,24.8938,19.9997,0.0115561,1342.86,0.00144452,167.858,NaN
91165.1,24.8442,19.9996,0.0114755,1349.8,0.00143444,168.725,NaN
91816.4,24.9188,20.0001,0.0113892,1357.25,0.00142365,169.656,NaN
92489.8,24.9013,20,0.0113011,1364.89,0.00141264,170.611,NaN
93158.5,24.8985,20.0003,0.0112155,1372.41,0.00140194,171.552,NaN
93761.3,24.9081,19.9999,0.0111382,1379.15,0.00139227,172.394,NaN
94332.6,24.8738,19.9991,0.0110651,1385.49,0.00138313,173.187,NaN
95137.6,24.8969,20.0004,0.0109623,1394.36,0.00137028,174.295,NaN
95769.1,24.9111,19.9999,0.0108819,1401.26,0.00136023,175.157,NaN
96201.2,24.8995,19.9998,0.0108267,1405.95,0.00135333,175.743,NaN
96880.6,24.8924,19.9994,0.0107397,1413.27,0.00134246,176.659,NaN
97613.2,24.8686,19.9999,0.010646,1421.11,0.00133075,177.638,NaN
98199.2,24.8655,19.9996,0.0105713,1427.32,0.00132141,178.415,NaN
98857.5,24.8586,19.9994,0.0104868,1434.25,0.00131085,179.282,NaN
99531.4,24.8438,19.9996,0.0104002,1441.29,0.00130002,180.162,NaN
100180,24.8789,19.9999,0.0103157,1448.01,0.00128946,181.002,NaN
101065,24.8633,19.9999,0.0102002,1457.09,0.00127502,182.136,NaN
101807,24.8747,20.0002,0.0101031,1464.62,0.00126289,183.078,NaN
102569,24.8576,19.9994,0.0100033,1472.28,0.00125041,184.035,NaN
103211,24.8502,19.9995,0.0099186,1478.68,0.00123982,184.835,NaN
103804,24.8393,20,0.00983991,1484.53,0.00122999,185.567,NaN
104550,24.8681,20.0001,0.00973991,1491.84,0.00121749,186.48,NaN
105170,24.8121,19.9998,0.00965532,1497.85,0.00120692,187.232,NaN
105874,24.8493,19.9996,0.00955905,1504.62,0.00119488,188.077,NaN
106442,24.8578,20.0008,0.00948027,1510.02,0.00118503,188.753,NaN
107123,24.8496,20.0002,0.00938578,1516.44,0.00117322,189.555,NaN
107781,24.8363,20,0.00929547,1522.59,0.00116193,190.324,NaN
108524,24.8209,20.0001,0.00919272,1529.46,0.00114909,191.183,NaN
108990,24.8346,20,0.00912771,1533.73,0.00114096,191.716,NaN
109721,24.7911,19.9999,0.00902522,1540.36,0.00112815,192.545,NaN
110381,24.833,19.9998,0.00893065,1546.29,0.00111633,193.286,NaN
111007,24.8272,19.9999,0.00884013,1551.85,0.00110502,193.981,NaN
111679,24.7944,19.9998,0.00874317,1557.76,0.0010929,194.72,NaN
112346,24.8145,19.9998,0.00864561,1563.56,0.0010807,195.445,NaN
112987,24.8072,19.9999,0.00855114,1569.07,0.00106889,196.134,NaN
113521,24.8221,19.9999,0.0084724,1573.62,0.00105905,196.702,NaN
114119,24.8194,20.0002,0.00838512,1578.66,0.00104814,197.332,NaN
114600,24.8075,19.9994,0.00831511,1582.68,0.00103939,197.834,NaN
115260,24.7986,20.0002,0.00821937,1588.13,0.00102742,198.516,NaN
115867,24.7878,19.9997,0.00813041,1593.09,0.0010163,199.136,NaN
116465,24.7554,19.9998,0.00804434,1597.93,0.00100554,199.741,NaN
117102,24.775,19.9999,0.00795354,1603.02,0.000994192,200.378,NaN
117758,24.8102,19.9997,0.007861,1608.21,0.000982625,201.026,NaN
118288,24.8452,19.9998,0.00778846,1612.36,0.000973557,201.545,NaN
118878,24.792,19.9999,0.00770862,1616.93,0.000963577,202.116,NaN
119626,24.7889,19.9997,0.0076115,1622.66,0.000951437,202.833,NaN
120261,24.7771,19.9996,0.00753148,1627.46,0.000941435,203.433,NaN
120983,24.779,19.9998,0.00744319,1632.87,0.000930399,204.108,NaN
121742,24.7743,19.9993,0.00735404,1638.49,0.000919255,204.811,NaN
122423,24.8323,19.9998,0.00727767,1643.47,0.000909708,205.433,NaN
123011,24.7898,20.0004,0.00721341,1647.73,0.000901676,205.966,NaN
123649,24.7919,20.0005,0.00714607,1652.31,0.000893259,206.539,NaN
124329,24.7699,19.9998,0.00707716,1657.14,0.000884646,207.143,NaN
124818,24.7915,19.9998,0.00702995,1660.59,0.000878743,207.574,NaN
125476,24.8025,19.9997,0.00696749,1665.2,0.000870936,208.149,NaN
126104,24.7792,19.9997,0.00691017,1669.55,0.000863771,208.694,NaN
126853,24.7928,20,0.00684344,1674.71,0.00085543,209.338,NaN
127537,24.7867,19.9998,0.00678434,1679.37,0.000848042,209.921,NaN
128135,24.7782,19.9998,0.0067342,1683.41,0.000841775,210.426,NaN
128726,24.779,19.9996,0.00668542,1687.37,0.000835678,210.922,NaN
129409,24.7708,19.9999,0.00663015,1691.92,0.000828769,211.49,NaN
129964,24.8171,20.0001,0.00658654,1695.59,0.000823318,211.949,NaN
130650,24.7971,20.0002,0.00653353,1700.09,0.000816691,212.511,NaN
131318,24.7756,19.9994,0.00648319,1704.44,0.000810399,213.055,NaN
131960,24.748,19.9999,0.00643617,1708.58,0.000804522,213.573,NaN
132639,24.7615,20.0002,0.00638728,1712.94,0.00079841,214.117,NaN
133445,24.7772,20.0001,0.00633065,1718.06,0.000791332,214.758,NaN
134172,24.7498,20,0.00628009,1722.64,0.000785011,215.331,NaN
134715,24.7923,19.9998,0.00624283,1726.05,0.000780353,215.756,NaN
135336,24.7657,20,0.00620143,1729.91,0.000775179,216.239,NaN
135925,24.7886,19.9996,0.00616271,1733.55,0.000770339,216.694,NaN
136564,24.7652,19.9993,0.00612062,1737.48,0.000765078,217.185,NaN
137273,24.7461,20.0002,0.00607434,1741.8,0.000759292,217.725,NaN
138071,24.7815,19.9999,0.00602271,1746.63,0.000752839,218.328,NaN
138712,24.7748,20.0002,0.00598265,1750.47,0.000747831,218.809,NaN
139428,24.757,19.9997,0.00593872,1754.74,0.000742339,219.342,NaN
140050,24.7713,19.9996,0.00590098,1758.42,0.000737622,219.803,NaN
140751,24.7504,19.9998,0.00585927,1762.55,0.000732408,220.318,NaN
141296,24.8194,19.9997,0.0058268,1765.73,0.00072835,220.716,NaN
142106,24.7878,19.9997,0.00578048,1770.43,0.00072256,221.304,NaN
142859,24.7668,19.9996,0.00573742,1774.77,0.000717178,221.846,NaN
143654,24.7093,20.0001,0.00569196,1779.31,0.000711495,222.414,NaN
144514,24.7592,20.0001,0.0056438,1784.19,0.000705475,223.023,NaN
145273,24.7727,19.999,0.00560271,1788.45,0.000700338,223.556,NaN
146089,24.7606,19.9994,0.00556007,1793.01,0.000695009,224.126,NaN
146768,24.7842,20.0001,0.00552592,1796.77,0.000690739,224.597,NaN
147464,24.7585,19.9998,0.00549064,1800.6,0.00068633,225.075,NaN
148213,24.7601,19.9996,0.00545335,1804.7,0.000681669,225.588,NaN
148872,24.762,19.9997,0.00542024,1808.29,0.00067753,226.036,NaN
149636,24.7479,19.9999,0.00538132,1812.41,0.000672665,226.552,NaN
150231,24.7357,19.9998,0.00535166,1815.61,0.000668957,226.951,NaN
151213,24.7204,19.9996,0.00530334,1820.84,0.000662917,227.604,NaN
151946,24.6962,19.9999,0.00526847,1824.71,0.000658559,228.088,NaN
152679,24.7044,20.0001,0.0052342,1828.56,0.000654275,228.57,NaN
153355,24.7216,19.9999,0.00520352,1832.09,0.00065044,229.011,NaN
154233,24.6975,19.9996,0.00516529,1836.64,0.000645661,229.58,NaN
154878,24.6784,19.9998,0.0051376,1839.96,0.0006422,229.995,NaN
155495,24.6894,19.9999,0.00511214,1843.12,0.000639017,230.39,NaN
156294,24.6954,19.9996,0.00507955,1847.19,0.000634944,230.899,NaN
157014,24.6724,20,0.00505055,1850.84,0.000631318,231.355,NaN
157752,24.6612,19.9996,0.00502083,1854.56,0.000627604,231.82,NaN
158422,24.6543,19.9999,0.00499454,1857.91,0.000624318,232.239,NaN
159263,24.6504,20.0002,0.00496187,1862.1,0.000620234,232.763,NaN
159855,24.6311,20.0004,0.00493929,1865.03,0.000617411,233.129,NaN
160580,24.6585,19.9995,0.00491205,1868.6,0.000614007,233.575,NaN
161288,24.6844,19.9996,0.00488602,1872.07,0.000610753,234.009,NaN
162069,24.662,19.9996,0.00485804,1875.88,0.000607255,234.484,NaN
162792,24.6473,20.0004,0.00483221,1879.38,0.000604026,234.922,NaN
163521,24.6577,19.9995,0.00480666,1882.89,0.000600832,235.362,NaN
164260,24.6405,19.9997,0.00478132,1886.44,0.000597665,235.805,NaN
164990,24.6588,19.9998,0.00475646,1889.92,0.000594557,236.24,NaN
165654,24.6722,19.9995,0.00473368,1893.07,0.00059171,236.633,NaN
166412,24.6152,19.9996,0.00470838,1896.65,0.000588548,237.081,NaN
167021,24.5847,19.9998,0.00468847,1899.51,0.000586058,237.438,NaN
167786,24.6287,19.9995,0.00466384,1903.08,0.000582979,237.885,NaN
168615,24.6187,19.9995,0.00463757,1906.94,0.000579696,238.367,NaN
169404,24.6138,19.9998,0.00461266,1910.59,0.000576583,238.824,NaN
170356,24.646,19.9998,0.00458449,1914.97,0.000573061,239.371,NaN
171028,24.6437,19.9993,0.00456466,1918.04,0.000570583,239.755,NaN
171751,24.6086,20,0.00454442,1921.33,0.000568053,240.166,NaN
172578,24.6001,19.9999,0.00452139,1925.08,0.000565174,240.635,NaN
173400,24.6175,19.9998,0.0044992,1928.79,0.0005624,241.099,NaN
174133,24.5753,19.9998,0.0044797,1932.08,0.000559962,241.51,NaN
174774,24.5962,20.0001,0.00446315,1934.95,0.000557894,241.868,NaN
175524,24.6148,19.9997,0.00444432,1938.29,0.00055554,242.286,NaN
176108,24.5973,19.9997,0.0044304,1940.88,0.000553801,242.61,NaN
176717,24.5874,19.9995,0.00441625,1943.57,0.000552031,242.947,NaN
177330,24.5827,20.0008,0.00440273,1946.27,0.000550341,243.284,NaN
178190,24.6379,19.9996,0.00438464,1950.06,0.000548081,243.757,NaN
178965,24.5837,19.9993,0.00436846,1953.45,0.000546058,244.181,NaN
179624,24.5826,20.0004,0.00435513,1956.32,0.000544391,244.54,NaN
180409,24.5625,19.9999,0.00433837,1959.73,0.000542297,244.966,NaN
181286,24.6068,20,0.00432007,1963.53,0.000540008,245.441,NaN
182006,24.62,19.9996,0.00430548,1966.64,0.000538185,245.829,NaN
182668,24.6304,19.9999,0.00429137,1969.48,0.000536421,246.185,NaN
183370,24.6006,19.9998,0.00427703,1972.49,0.000534629,246.561,NaN
183885,24.5571,19.9999,0.00426656,1974.69,0.00053332,246.836,NaN
184656,24.5861,19.9999,0.00425105,1977.97,0.000531382,247.246,NaN
185364,24.5932,20.0001,0.00423695,1980.98,0.000529619,247.622,NaN
186143,24.6143,19.9994,0.004222,1984.27,0.00052775,248.033,NaN
186805,24.6196,20,0.00420919,1987.06,0.000526148,248.383,NaN
187543,24.5949,19.9999,0.00419535,1990.16,0.000524419,248.77,NaN
188171,24.6177,19.9999,0.00418322,1992.79,0.000522903,249.099,NaN
188819,24.5973,19.9998,0.00417087,1995.5,0.000521359,249.437,NaN
189496,24.6052,20,0.00415734,1998.32,0.000519668,249.79,NaN
190170,24.5627,19.9997,0.00414447,2001.12,0.000518059,250.14,NaN
190892,24.6618,19.9999,0.00413084,2004.1,0.000516355,250.513,NaN
191681,24.6072,19.9999,0.00411518,2007.36,0.000514398,250.92,NaN
192635,24.6055,19.9999,0.00409694,2011.28,0.000512117,251.409,NaN
193483,24.6057,19.9999,0.00407998,2014.74,0.000509997,251.843,NaN
194047,24.6194,19.9998,0.00406926,2017.04,0.000508657,252.13,NaN
194604,24.6013,19.9998,0.00405845,2019.3,0.000507306,252.413,NaN
195182,24.6101,19.9991,0.00404711,2021.64,0.000505889,252.706,NaN
195875,24.5829,19.9998,0.0040328,2024.44,0.000504099,253.056,NaN
196646,24.6315,19.9998,0.00401735,2027.55,0.000502169,253.444,NaN
197432,24.586,20,0.00400255,2030.7,0.000500319,253.838,NaN
198288,24.5585,20,0.00398682,2034.12,0.000498352,254.265,NaN
198986,24.6063,19.9996,0.0039743,2036.9,0.000496788,254.612,NaN
199561,24.5973,20,0.00396419,2039.18,0.000495524,254.897,NaN
200373,24.5707,19.9994,0.00395012,2042.39,0.000493765,255.299,NaN
201099,24.5748,19.9999,0.00393765,2045.26,0.000492206,255.657,NaN
202076,24.5798,20.0002,0.00392166,2049.1,0.000490208,256.137,NaN
202703,24.585,20.0001,0.0039111,2051.55,0.000488887,256.444,NaN
203460,24.5791,20.0001,0.00389873,2054.51,0.000487342,256.813,NaN
204164,24.5784,20.0004,0.00388757,2057.25,0.000485946,257.156,NaN
205026,24.58,19.9998,0.0038745,2060.59,0.000484313,257.574,NaN
205708,24.5712,19.9996,0.00386439,2063.23,0.000483049,257.904,NaN
206584,24.6,19.9997,0.00385088,2066.61,0.00048136,258.326,NaN
207292,24.6108,19.9993,0.0038405,2069.33,0.000480062,258.667,NaN
207829,24.5458,19.9995,0.003832,2071.4,0.000479,258.924,NaN
208469,24.5685,19.9996,0.00382221,2073.84,0.000477777,259.23,NaN
209125,24.539,19.9995,0.00381208,2076.35,0.00047651,259.543,NaN
209869,24.5231,20.0002,0.00380132,2079.18,0.000475166,259.897,NaN
210445,24.517,19.9996,0.00379314,2081.37,0.000474142,260.171,NaN
211040,24.5351,19.9999,0.00378508,2083.62,0.000473134,260.453,NaN
211853,24.5407,19.9999,0.00377338,2086.69,0.000471673,260.837,NaN
212643,24.5325,19.9998,0.0037618,2089.67,0.000470225,261.209,NaN
213469,24.529,19.9998,0.00374941,2092.77,0.000468676,261.597,NaN
214163,24.5452,19.9995,0.00373921,2095.37,0.000467401,261.921,NaN
214864,24.4943,19.9998,0.0037289,2097.99,0.000466113,262.248,NaN
215694,24.5391,20.0004,0.00371624,2101.08,0.000464529,262.635,NaN
216329,24.5317,20.0001,0.00370716,2103.44,0.000463395,262.929,NaN
217124,24.5014,19.9999,0.00369491,2106.38,0.000461864,263.297,NaN
217845,24.5088,19.9995,0.00368454,2109.04,0.000460568,263.63,NaN
218873,24.5095,19.9999,0.00366877,2112.82,0.000458596,264.102,NaN
219616,24.5064,20.0001,0.00365771,2115.54,0.000457214,264.442,NaN
220274,24.5197,20.0002,0.00364822,2117.94,0.000456028,264.743,NaN
220983,24.5195,19.9994,0.00363824,2120.52,0.00045478,265.066,NaN
221662,24.5036,20.0001,0.0036287,2122.99,0.000453588,265.374,NaN
222511,24.5136,19.9998,0.00361656,2126.07,0.000452071,265.759,NaN
223256,24.4911,19.9995,0.00360586,2128.76,0.000450732,266.095,NaN
224079,24.4916,20.0001,0.00359354,2131.72,0.000449193,266.465,NaN
224818,24.4842,19.9996,0.00358252,2134.37,0.000447815,266.796,NaN
225848,24.4927,20,0.00356771,2138.06,0.000445964,267.257,NaN
226550,24.5279,19.9997,0.00355794,2140.56,0.000444743,267.57,NaN
227146,24.4815,19.9995,0.0035501,2142.67,0.000443762,267.834,NaN
228033,24.4432,19.9995,0.00353795,2145.82,0.000442244,268.227,NaN
228750,24.4834,19.9999,0.00352849,2148.35,0.000441062,268.544,NaN
229578,24.4645,19.9998,0.00351697,2151.27,0.000439622,268.908,NaN
230349,24.4775,19.9999,0.00350657,2153.98,0.000438321,269.247,NaN
230854,24.482,19.9996,0.00349936,2155.75,0.00043742,269.468,NaN
231519,24.4775,19.9999,0.00349067,2158.07,0.000436334,269.758,NaN
232172,24.4698,19.9997,0.00348242,2160.35,0.000435302,270.043,NaN
232981,24.4752,19.9997,0.00347185,2163.16,0.000433982,270.395,NaN
233748,24.4412,19.9998,0.00346188,2165.82,0.000432735,270.727,NaN
234619,24.4908,19.9999,0.00345045,2168.83,0.000431306,271.103,NaN
235430,24.4683,19.9997,0.00343939,2171.62,0.000429923,271.453,NaN
236403,24.502,20.0002,0.00342637,2174.96,0.000428296,271.87,NaN
237030,24.4719,19.9998,0.00341819,2177.11,0.000427274,272.138,NaN
237678,24.4794,19.9997,0.0034101,2179.32,0.000426262,272.415,NaN
238428,24.454,19.9997,0.00340053,2181.87,0.000425066,272.734,NaN
239087,24.4801,19.9991,0.00339169,2184.11,0.000423962,273.014,NaN
239809,24.4453,20.0004,0.00338249,2186.56,0.000422812,273.319,NaN
240667,24.4588,19.9999,0.00337046,2189.46,0.000421308,273.682,NaN
241421,24.4391,19.9997,0.00336073,2191.99,0.000420092,273.999,NaN
242301,24.4549,19.9996,0.00334973,2194.94,0.000418717,274.368,NaN
243081,24.4519,19.9998,0.00333941,2197.55,0.000417426,274.694,NaN
243809,24.4519,19.9997,0.00332968,2199.98,0.00041621,274.997,NaN
244473,24.4342,19.9996,0.00332097,2202.19,0.000415122,275.274,NaN
245392,24.4477,20.0012,0.00330811,2205.24,0.000413513,275.655,NaN
246277,24.4132,19.9998,0.00329639,2208.16,0.000412049,276.02,NaN
246859,24.4269,20,0.00328937,2210.07,0.000411171,276.259,NaN
247664,24.4444,19.9999,0.00327895,2212.72,0.000409869,276.59,NaN
248554,24.4184,19.9997,0.00326674,2215.63,0.000408343,276.954,NaN
249192,24.4118,20.0004,0.00325823,2217.71,0.000407278,277.214,NaN
249886,24.4011,19.9991,0.00324945,2219.97,0.000406182,277.496,NaN
250635,24.3948,19.9999,0.0032394,2222.4,0.000404925,277.8,NaN
251297,24.3974,20,0.00322983,2224.54,0.000403729,278.068,NaN
252264,24.4468,19.9996,0.00321752,2227.66,0.000402191,278.457,NaN
252906,24.4407,19.9999,0.0032098,2229.72,0.000401225,278.715,NaN
253726,24.4453,19.9998,0.00319912,2232.35,0.00039989,279.044,NaN
254478,24.4154,19.9998,0.00318974,2234.75,0.000398717,279.344,NaN
255120,24.4954,19.9997,0.00318213,2236.8,0.000397767,279.6,NaN
255770,24.4352,19.9999,0.00317415,2238.86,0.000396769,279.858,NaN
256606,24.4294,19.9999,0.00316225,2241.51,0.000395281,280.189,NaN
257413,24.4634,19.9997,0.00315154,2244.06,0.000393943,280.507,NaN
258140,24.4354,19.9996,0.00314171,2246.35,0.000392714,280.793,NaN
258666,24.4386,19.9997,0.00313494,2248,0.000391868,281,NaN
259041,24.4662,20,0.00313013,2249.17,0.000391266,281.146,NaN
259304,24.4749,19.9999,NaN,NaN,NaN,NaN,NaN
259899,24.4602,19.9996,NaN,NaN,NaN,NaN,NaN
260470,24.4148,19.9997,NaN,NaN,NaN,NaN,NaN
260826,24.4915,19.9997,NaN,NaN,NaN,NaN,NaN