File: calocem/DATA/calorimetry_data_6.csv
Time,Temperature,Heat flow,Heat,Normalized heat flow,Normalized heat,Time markers
-4148.43,20.0,NaN,NaN,NaN,NaN,
-4145.67,20,-0.00234237,NaN,-8.1644e-07,NaN,
-4125.42,20.0,-0.00221708,NaN,-7.72772e-07,NaN,
-4114.89,20.0,-0.0018023,NaN,-6.28199e-07,NaN,
-4093.11,20.0,-0.00171415,NaN,-5.97473e-07,NaN,
-4056.06,20.0,-0.00224232,NaN,-7.81569e-07,NaN,
-3997.18,20.0,-0.00176027,NaN,-6.1355e-07,NaN,
-3979.56,20.0,-0.00246145,NaN,-8.57946e-07,NaN,
-3925.42,20.0,-0.00243854,NaN,-8.49962e-07,NaN,
-3868.72,20.0,-0.002254,NaN,-7.85639e-07,NaN,
-3852.4,20.0,-0.00292466,NaN,-1.0194e-06,NaN,
-3789.96,20.0,-0.00234865,NaN,-8.18632e-07,NaN,
-3749.92,20.0,-0.00265335,NaN,-9.24833e-07,NaN,
-3710.62,20.0,-0.00194038,NaN,-6.76325e-07,NaN,
-3672.83,20.0,-0.00128988,NaN,-4.49592e-07,NaN,
-3642.45,20.0,-0.00200895,NaN,-7.00226e-07,NaN,
-3623.17,20.0,-0.00130499,NaN,-4.54859e-07,NaN,
-3612.66,20.0,-0.00141939,NaN,-4.94732e-07,NaN,
-3593.79,20.0,-0.00110935,NaN,-3.86669e-07,NaN,
-3584.17,20.0,-0.00148914,NaN,-5.19046e-07,NaN,
-3531.91,20.0,-0.0011711,NaN,-4.08192e-07,NaN,
-3492.68,20.0,-0.000954077,NaN,-3.32547e-07,NaN,
-3474.11,20.0,-0.00131118,NaN,-4.57018e-07,NaN,
-3450.63,20.0,-0.000804209,NaN,-2.8031e-07,NaN,
-3413.57,20.0,-0.0009252,NaN,-3.22482e-07,NaN,
-3355.44,20.0,-0.00122889,NaN,-4.28335e-07,NaN,
-3339.17,20.0,-0.000668852,NaN,-2.33131e-07,NaN,
-3322.15,20.0,-0.000873049,NaN,-3.04304e-07,NaN,
-3297.32,20.0,-0.000356951,NaN,-1.24417e-07,NaN,
-3271.4,20.0,-0.000569805,NaN,-1.98607e-07,NaN,
-3216.93,20.0,-0.000395322,NaN,-1.37791e-07,NaN,
-3205.17,20.0,-8.03391e-05,NaN,-2.80025e-08,NaN,
-3184.14,20.0,-0.000585678,NaN,-2.0414e-07,NaN,
-3162.32,20.0,-0.000315086,NaN,-1.09824e-07,NaN,
-3132.65,20.0,0.000230113,NaN,8.02067e-08,NaN,
-3118.67,20.0,-0.000463142,NaN,-1.6143e-07,NaN,
-3076.13,20.0,-0.000249978,NaN,-8.71306e-08,NaN,
-3016.55,20.0,-0.000249822,NaN,-8.70765e-08,NaN,
-2983.04,20.0,0.000534801,NaN,1.86407e-07,NaN,
-2968.1,20.0,0.000495875,NaN,1.72839e-07,NaN,
-2955.56,20.0,0.000802887,NaN,2.79849e-07,NaN,
-2940.82,20.0,0.000648351,NaN,2.25985e-07,NaN,
-2915.31,20.0,0.00127959,NaN,4.46006e-07,NaN,
-2876.58,20.0,0.00102891,NaN,3.58631e-07,NaN,
-2849.85,20.0,0.0017617,NaN,6.14047e-07,NaN,
-2814.3,20.0,0.00194818,NaN,6.79044e-07,NaN,
-2774.8,20.0,0.00216633,NaN,7.55083e-07,NaN,
-2759.67,20.0,0.0017021,NaN,5.93274e-07,NaN,
-2724.77,20.0,0.00219471,NaN,7.64974e-07,NaN,
-2701.74,20.0,0.00180251,NaN,6.28269e-07,NaN,
-2660.83,20.0,0.00278783,NaN,9.71707e-07,NaN,
-2612.67,20.0,0.00324586,NaN,1.13136e-06,NaN,
-2597.69,20.0,0.00299997,NaN,1.04565e-06,NaN,
-2579.75,20.0,0.00308988,NaN,1.07699e-06,NaN,
-2561.19,20.0,0.00273061,NaN,9.51764e-07,NaN,
-2538.58,20.0,0.00340226,NaN,1.18587e-06,NaN,
-2503.84,20,0.00323732,NaN,1.12838e-06,NaN,
-2411.81,20.0,0.0038972,NaN,1.35838e-06,NaN,
-2371.73,20.0,0.00360909,NaN,1.25796e-06,NaN,
-2355.46,20.0,0.0039701,NaN,1.38379e-06,NaN,
-2348.67,20.0,0.00409991,NaN,1.42904e-06,NaN,
7293.67,20.0,NaN,NaN,NaN,NaN,Reaction start. Measuring position. Signal correct
7294.33,20.0,0.223748,0.14769,7.7988e-05,5.14777e-05,
7468.92,20.0,0.280097,44.4498,9.76288e-05,0.0154931,
7530.33,20.0,0.74693,63.4827,0.000260345,0.0221271,
7538.33,20.0,20.3261,138.422,0.00708473,0.0482473,
7550.33,20,76.5545,703.762,0.0266833,0.245299,
7560.46,20.0,130.743,1753.55,0.0455708,0.611206,
7571.33,20.0,185.411,3478.28,0.0646258,1.21237,
7582.46,20.0,231.613,5806.63,0.0807297,2.02392,
7592.33,20,264.322,8262.36,0.0921304,2.87987,
7604.33,20.0,293.269,11617.1,0.10222,4.04917,
7614.21,20,309.203,14596.8,0.107774,5.08776,
7625.33,20.0,320.839,18107.1,0.11183,6.31129,
7637.33,20.0,326.633,21996.7,0.113849,7.66704,
7646.33,20.0,327.657,24942.9,0.114206,8.69393,
7659.33,20.0,325.288,29190.9,0.11338,10.1746,
7671.33,20.0,320.105,33065.2,0.111574,11.525,
7685.33,20.0,311.635,37489.6,0.108622,13.0671,
7697.33,20.0,303.082,41178.9,0.10564,14.353,
7711.33,20.0,291.998,45345.1,0.101777,15.8052,
7730.97,20.0,275.72,50921.2,0.0961032,17.7488,
7754.61,20.0,255.86,57204,0.0891807,19.9387,
7771.33,20.0,242.163,61366.6,0.0844066,21.3895,
7790.83,20.0,226.796,65937.9,0.0790505,22.9829,
7810.83,20.0,211.843,70323,0.0738388,24.5113,
7830.33,20.0,198.104,74318.7,0.0690497,25.9041,
7847.11,20,186.953,77548.7,0.065163,27.0299,
7865.33,20.0,175.493,80849.4,0.0611686,28.1803,
7884.83,20.0,164.007,84158.3,0.0571653,29.3337,
7904.33,20.0,153.249,87250.5,0.0534155,30.4115,
7921.21,20.0,144.501,89762.1,0.0503665,31.2869,
7943.4,20.0,133.737,92847.3,0.0466144,32.3622,
7968.3,20.0,122.606,96037.8,0.0427346,33.4743,
7988.3,20.0,114.318,98406.1,0.0398458,34.2998,
8009.27,20.0,106.223,100717,0.0370243,35.1054,
8027.11,20.0,99.7834,102555,0.0347798,35.7458,
8049.08,20.0,92.3926,104664,0.0322038,36.4812,
8069.4,20.0,86.0486,106476,0.0299926,37.1126,
8089.08,20.0,80.3251,108113,0.0279976,37.6832,
8105.9,20.0,75.791,109425,0.0264172,38.1405,
8127.83,20.0,70.2047,111026,0.0244701,38.6984,
8144.33,20.0,66.3297,112152,0.0231194,39.0909,
8160.83,20.0,62.6654,113216,0.0218423,39.4618,
8177.33,20.0,59.2092,114221,0.0206376,39.8121,
8193.83,20.0,55.9515,115171,0.0195021,40.1432,
8210.33,20.0,52.8852,116069,0.0184333,40.4561,
8237.83,20.0,48.1725,117457,0.0167907,40.9401,
8268.83,20.0,43.3806,118875,0.0151205,41.4343,
8288.83,20.0,40.572,119714,0.0141415,41.7268,
8308.83,20.0,37.9789,120499,0.0132377,42.0005,
8329.33,20.0,35.5242,121252,0.0123821,42.263,
8349.33,20.0,33.3104,121941,0.0116105,42.5028,
8369.33,20.0,31.2622,122586,0.0108966,42.7278,
8396.33,20.0,28.7377,123395,0.0100166,43.0099,
8423.33,20.0,26.4673,124140,0.00922526,43.2695,
8449.83,20.0,24.4605,124815,0.00852578,43.5046,
8476.83,20.0,22.6209,125450,0.0078846,43.7259,
8502.83,20.0,21.0305,126017,0.00733025,43.9236,
8536.33,20.0,19.209,126690,0.00669535,44.1583,
8556.33,20.0,18.2354,127065,0.00635601,44.2888,
8589.83,20.0,16.7761,127650,0.00584738,44.493,
8631.61,20.0,15.2259,128318,0.00530705,44.7257,
8672.93,20.0,13.9588,128920,0.00486538,44.9355,
8705.93,20.0,13.106,129366,0.00456813,45.0911,
8746.29,20.0,12.2338,129877,0.00426414,45.2691,
8790.05,20.0,11.4856,130395,0.00400333,45.4498,
8832.33,20.0,10.9444,130869,0.0038147,45.6148,
8876.77,20.0,10.5594,131346,0.00368051,45.7811,
8921.83,20.0,10.3709,131817,0.0036148,45.9452,
8968.83,20.0,10.4174,132304,0.00363101,46.1151,
9012.3,20.0,10.7383,132763,0.00374288,46.275,
9047.33,20.0,11.2672,133148,0.00392721,46.4091,
9067.33,20.0,11.7176,133377,0.0040842,46.4891,
9094.33,20.0,12.5605,133704,0.004378,46.6031,
9114.33,20.0,13.4142,133964,0.00467555,46.6936,
9134.33,20.0,14.5213,134243,0.00506143,46.7908,
9154.83,20.0,15.9848,134555,0.00557155,46.8996,
9173.83,20.0,17.6863,134874,0.00616464,47.0109,
9192.83,20.0,19.7921,135230,0.00689861,47.1348,
9213.33,20.0,22.5387,135663,0.00785594,47.2858,
9232.83,20.0,25.5551,136131,0.00890731,47.4491,
9252.83,20.0,29.0167,136677,0.0101139,47.6391,
9286.33,20.0,35.1987,137752,0.0122686,48.0138,
9313.33,20.0,40.0715,138769,0.0139671,48.3683,
9333.33,20.0,43.3798,139604,0.0151202,48.6593,
9353.83,20.0,46.3818,140524,0.0161666,48.9802,
9373.33,20.0,48.8055,141453,0.0170113,49.3039,
9392.83,20.0,50.7977,142425,0.0177057,49.6427,
9411.33,20.0,52.2812,143379,0.0182228,49.9752,
9431.33,20.0,53.4668,144437,0.018636,50.344,
9451.83,20,54.2546,145542,0.0189106,50.7291,
9471.83,20.0,54.6462,146631,0.0190471,51.1088,
9491.83,20.0,54.71,147725,0.0190694,51.4902,
9511.33,20.0,54.5013,148790,0.0189966,51.8614,
9531.33,20.0,54.0395,149876,0.0188357,52.2399,
9552.33,20.0,53.3328,151004,0.0185893,52.633,
9574.33,20,52.3875,152167,0.0182598,53.0384,
9601.83,20.0,50.9859,153589,0.0177713,53.534,
9637.83,20.0,48.878,155388,0.0170366,54.1609,
9684.83,20,45.8047,157613,0.0159654,54.9367,
9763.38,20.0,40.4288,161000,0.0140916,56.1173,
9817.3,20.0,36.8197,163082,0.0128336,56.843,
9863.1,20.0,33.9072,164701,0.0118185,57.4073,
9911.05,20.0,31.0573,166258,0.0108251,57.9499,
9950.61,20,28.8807,167443,0.0100665,58.3629,
9993.36,20.0,26.7024,168631,0.00930722,58.7768,
10041.6,20.0,24.472,169865,0.00852982,59.207,
10088.7,20.0,22.5235,170970,0.00785064,59.5922,
10134.3,20.0,20.8359,171958,0.00726241,59.9365,
10182.7,20.0,19.243,172927,0.00670723,60.2744,
10233.8,20.0,17.7663,173872,0.00619251,60.6039,
10284.3,20.0,16.4918,174736,0.00574828,60.9049,
10343.2,20.0,15.2029,175669,0.00529904,61.2301,
10397.8,20.0,14.1787,176470,0.00494205,61.5093,
10462.9,20.0,13.1344,177358,0.00457804,61.8188,
10522.4,20.0,12.3221,178115,0.0042949,62.0827,
10583,20.0,11.6109,178839,0.00404703,62.3351,
10647.9,20.0,10.9554,179571,0.00381854,62.5902,
10716.9,20.0,10.3576,180306,0.00361016,62.8462,
10800.8,20.0,9.73844,181149,0.00339437,63.14,
10880.1,20.0,9.24145,181900,0.00322114,63.4019,
10977.8,20.0,8.71749,182777,0.00303851,63.7076,
11116,20.0,8.10186,183938,0.00282393,64.1122,
11220.5,20.0,7.70753,184763,0.00268649,64.3999,
11345.8,20.0,7.29604,185703,0.00254306,64.7276,
11497.6,20.0,6.86858,186778,0.00239407,65.102,
11687.8,20.0,6.41076,188039,0.00223449,65.5416,
11823.5,20,6.12755,188889,0.00213578,65.8381,
12036.9,20.0,5.73812,190154,0.00200004,66.279,
12211.9,20,5.46041,191134,0.00190324,66.6204,
12360.6,20.0,5.2496,191930,0.00182977,66.8977,
12513.8,20.0,5.05176,192719,0.00176081,67.1728,
12662.5,20.0,4.87698,193457,0.00169989,67.4301,
12840.8,20.0,4.68681,194309,0.0016336,67.7272,
12995.7,20.0,4.53519,195023,0.00158076,67.9761,
13156.8,20.0,4.39158,195742,0.0015307,68.2266,
13304.7,20.0,4.26892,196382,0.00148795,68.4498,
13522.4,20.0,4.10434,197294,0.00143058,68.7674,
13721.9,20.0,3.96781,198098,0.00138299,69.0479,
13914.4,20.0,3.84731,198850,0.00134099,69.31,
14118.9,20.0,3.72966,199625,0.00129999,69.5801,
14317.5,20.0,3.62452,200355,0.00126334,69.8345,
14469.4,20.0,3.54967,200900,0.00123725,70.0244,
14626.1,20.0,3.47701,201450,0.00121192,70.2162,
14838.2,20.0,3.38511,202178,0.00117989,70.4698,
15035.7,20.0,3.30494,202839,0.00115195,70.7001,
15249.2,20.0,3.22366,203535,0.00112362,70.943,
15477.2,20.0,3.1433,204261,0.00109561,71.196,
15684.5,20.0,3.07463,204906,0.00107167,71.4206,
15884.9,20.0,3.01226,205516,0.00104994,71.6332,
16065.8,20.0,2.95914,206055,0.00103142,71.8213,
16243,20.0,2.90948,206575,0.00101411,72.0026,
16589.1,20.0,2.81701,207566,0.00098188,72.3479,
16790.5,20.0,2.76677,208128,0.000964367,72.5439,
17056.5,20.0,2.70432,208856,0.000942598,72.7974,
17217.1,20.0,2.66849,209287,0.000930113,72.9478,
17377.4,20.0,2.63458,209712,0.000918294,73.0959,
17565.5,20.0,2.59596,210204,0.000904831,73.2674,
17807.4,20.0,2.54891,210826,0.000888431,73.4843,
18239,20.0,2.46858,211909,0.000860433,73.8616,
18434.7,20,2.43397,212389,0.00084837,74.0288,
18611.2,20.0,2.40497,212816,0.00083826,74.1776,
18740.3,20.0,2.3836,213125,0.00083081,74.2854,
18900.8,20.0,2.35869,213505,0.000822131,74.418,
19335.2,20.0,2.29389,214516,0.000799542,74.7702,
19574,20.0,2.26063,215059,0.000787951,74.9597,
19702.8,20.0,2.24331,215349,0.000781915,75.0608,
20037.4,20.0,2.19952,216093,0.00076665,75.3199,
20221.1,20.0,2.17756,216495,0.000758998,75.4599,
20314.7,20.0,2.16663,216698,0.000755187,75.5309,
20448.4,20.0,2.15168,216987,0.000749976,75.6315,
20654.1,20.0,2.12848,217427,0.000741887,75.7848,
20882.7,20.0,2.10489,217911,0.000733666,75.9535,
21051,20.0,2.08729,218263,0.000727534,76.0764,
21383.7,20.0,2.05689,218953,0.000716938,76.3167,
21641.9,20.0,2.03438,219481,0.000709092,76.5008,
21772.8,20.0,2.02424,219747,0.000705556,76.5934,
21959.5,20.0,2.0099,220123,0.000700558,76.7246,
22222.9,20.0,1.99127,220650,0.000694065,76.9083,
22402.2,20.0,1.97919,221006,0.000689853,77.0323,
22638.2,20.0,1.96488,221471,0.000684866,77.1946,
22783.5,20.0,1.95661,221756,0.000681984,77.2939,
22907.8,20.0,1.94944,221999,0.000679485,77.3785,
23044.4,20.0,1.94293,222265,0.000677214,77.4712,
23215.5,20.0,1.93443,222596,0.000674254,77.5868,
23563.3,20.0,1.91846,223266,0.000668684,77.8203,
23839,20.0,1.90775,223794,0.000664953,78.0042,
24024.9,20.0,1.90122,224148,0.000662678,78.1276,
24165.6,20.0,1.89614,224415,0.000660907,78.2207,
24592.8,20.0,1.8839,225222,0.000656638,78.5021,
24798.8,20.0,1.87869,225610,0.000654825,78.6372,
24990,20.0,1.87371,225969,0.000653087,78.7622,
25193.9,20.0,1.86843,226350,0.000651247,78.8951,
25423.7,20.0,1.86349,226779,0.000649528,79.0446,
25825.7,20.0,1.85339,227526,0.000646006,79.305,
26078.8,20.0,1.84664,227994,0.000643654,79.4682,
26207.5,20.0,1.84344,228232,0.000642536,79.5509,
26419.8,20.0,1.8354,228622,0.000639734,79.6871,
26569.3,20.0,1.83013,228896,0.000637897,79.7826,
26855.8,20.0,1.81582,229419,0.000632912,79.9647,
27007.5,20.0,1.8064,229694,0.000629626,80.0605,
27234.2,20.0,1.78988,230101,0.000623867,80.2026,
27433.8,20.0,1.77346,230457,0.000618145,80.3266,
27640.2,20.0,1.757,230821,0.000612409,80.4535,
27935.3,20.0,1.73485,231337,0.000604688,80.6332,
28102,20.0,1.72363,231625,0.000600777,80.7336,
28342.7,20.0,1.70624,232038,0.000594715,80.8775,
28539.3,20.0,1.69284,232372,0.000590047,80.994,
28739.7,20.0,1.67759,232710,0.000584729,81.1118,
28896.4,20.0,1.66578,232972,0.000580615,81.2031,
29036.5,20.0,1.6554,233204,0.000576994,81.2841,
29454.2,20.0,1.62298,233889,0.000565695,81.5228,
29626.8,20.0,1.60956,234168,0.000561016,81.62,
29805.9,20.0,1.59458,234455,0.000555795,81.7201,
29984.6,20.0,1.58021,234739,0.000550787,81.8189,
30159.6,20.0,1.56657,235014,0.000546035,81.9149,
30357.3,20.0,1.55035,235322,0.000540379,82.0223,
30707.8,20.0,1.52262,235860,0.000530715,82.21,
30989.8,20.0,1.50003,236287,0.000522842,82.3586,
31177.8,20.0,1.48526,236567,0.000517694,82.4564,
31340.4,20.0,1.47279,236808,0.000513346,82.5402,
31643.6,20.0,1.44897,237251,0.000505045,82.6946,
31980.2,20.0,1.42456,237734,0.000496534,82.8632,
32139.5,20.0,1.41258,237960,0.00049236,82.942,
32490.2,20.0,1.38672,238451,0.000483346,83.113,
32651.3,20.0,1.37461,238674,0.000479125,83.1906,
32768.9,20.0,1.36643,238835,0.000476275,83.2467,
32966.3,20.0,1.35281,239103,0.000471528,83.3403,
33150.6,20.0,1.33974,239351,0.000466973,83.4267,
33555.3,20.0,1.31254,239888,0.000457492,83.6138,
33863.3,20.0,1.29222,240289,0.000450408,83.7536,
34228.7,20.0,1.26811,240757,0.000442005,83.9166,
34483.3,20.0,1.25274,241078,0.000436646,84.0285,
34638.5,20.0,1.24309,241271,0.000433283,84.096,
34789.2,20.0,1.23387,241458,0.000430071,84.161,
34917.7,20.0,1.22637,241616,0.000427455,84.2161,
35051.9,20.0,1.21864,241780,0.000424762,84.2734,
35311.8,20.0,1.20304,242095,0.000419323,84.383,
35446.9,20.0,1.19608,242257,0.000416897,84.4395,
35642.9,20.0,1.18484,242490,0.000412981,84.5209,
35902.7,20.0,1.17123,242797,0.000408236,84.6276,
36068.3,20.0,1.16323,242990,0.000405448,84.6949,
36190.9,20.0,1.15755,243132,0.000403467,84.7445,
36355.6,20.0,1.14999,243322,0.000400835,84.8108,
36510.6,20.0,1.14544,243500,0.000399247,84.8727,
36717.8,20.0,1.1396,243737,0.000397212,84.9553,
36948.4,20.0,1.13587,243999,0.000395912,85.0466,
37128.3,20.0,1.13696,244203,0.000396292,85.1179,
37345.8,20.0,1.14436,244451,0.00039887,85.2044,
37582.8,20.0,1.16129,244724,0.000404773,85.2995,
37788.5,20.0,1.18529,244966,0.000413136,85.3836,
37925.7,20.0,1.20624,245130,0.00042044,85.4408,
38141.2,20.0,1.24312,245393,0.000433295,85.5328,
38383,20.0,1.28817,245700,0.000448996,85.6394,
38520.8,20.0,1.3123,245879,0.000457406,85.7019,
38864.8,20.0,1.35856,246339,0.000473532,85.8623,
39123.3,20.0,1.37743,246693,0.00048011,85.9857,
39326.9,20.0,1.38258,246974,0.000481902,86.0837,
39472.1,20.0,1.38094,247175,0.000481333,86.1537,
39634.4,20.0,1.37676,247399,0.000479875,86.2317,
39784.4,20.0,1.37095,247605,0.000477849,86.3035,
39931.2,20.0,1.36276,247805,0.000474995,86.3734,
40176.9,20.0,1.347,248138,0.0004695,86.4895,
40486.5,20.0,1.32293,248552,0.000461112,86.6335,
40761,20.0,1.29947,248912,0.000452936,86.759,
41096,20.0,1.27186,249342,0.000443312,86.9091,
41246.8,20.0,1.26002,249533,0.000439183,86.9757,
41464.1,20.0,1.24203,249805,0.000432914,87.0704,
41627.6,20.0,1.22936,250007,0.000428496,87.1408,
41835.2,20.0,1.21326,250260,0.000422886,87.2291,
42131,20.0,1.19121,250616,0.000415202,87.3531,
42479.9,20.0,1.16702,251027,0.00040677,87.4965,
42652.2,20.0,1.15678,251227,0.000403199,87.5662,
42781.1,20.0,1.14838,251376,0.000400271,87.618,
43125.8,20.0,1.12858,251768,0.000393371,87.7548,
43367.4,20.0,1.11616,252040,0.000389043,87.8493,
43515,20.0,1.10921,252204,0.00038662,87.9066,
43745.5,20.0,1.09818,252458,0.000382774,87.9953,
44030.7,20.0,1.0864,252770,0.000378667,88.1039,
44201.5,20.0,1.07951,252955,0.000376267,88.1683,
44451.2,20.0,1.07153,253223,0.000373484,88.2619,
44626.1,20.0,1.06438,253410,0.000370992,88.327,
44834.5,20.0,1.05781,253631,0.000368705,88.4041,
45022.7,20.0,1.05209,253830,0.000366711,88.4733,
45219,20.0,1.04719,254036,0.000365002,88.5451,
45385.2,20.0,1.04326,254210,0.000363633,88.6057,
45625.6,20.0,1.03879,254460,0.000362074,88.6929,
45850.7,20.0,1.03638,254694,0.000361232,88.7743,
46040.9,20.0,1.03451,254890,0.000360583,88.843,
46301.2,20.0,1.03186,255159,0.000359657,88.9367,
46541.3,20.0,1.03164,255407,0.000359583,89.023,
46781.6,20.0,1.03223,255655,0.000359788,89.1094,
47068.5,20.0,1.03498,255951,0.000360747,89.2128,
47312.9,20.0,1.03984,256205,0.000362439,89.3011,
47443.8,20.0,1.04337,256341,0.000363669,89.3486,
47629.8,20.0,1.04971,256536,0.00036588,89.4165,
47853.4,20.0,1.06032,256772,0.000369579,89.4987,
47950.4,20.0,1.06543,256875,0.000371358,89.5346,
48278.2,20.0,1.08826,257227,0.000379317,89.6575,
48541.6,20.0,1.11423,257517,0.000388369,89.7586,
48782.2,20.0,1.14602,257789,0.000399449,89.8533,
49050.7,20.0,1.19533,258103,0.000416636,89.9627,
49270.9,20.0,1.25045,258372,0.000435849,90.0565,
49407.8,20.0,1.29271,258546,0.000450579,90.1172,
49612.5,20.0,1.37252,258819,0.000478398,90.2121,
49816.3,20.0,1.47525,259108,0.000514203,90.3132,
50029.3,20.0,1.61425,259437,0.000562653,90.4276,
50163,20.0,1.72212,259660,0.000600251,90.5053,
50355.2,20.0,1.90886,260008,0.000665341,90.6267,
50558.2,20.0,2.155,260420,0.000751134,90.7701,
50683.9,20.0,2.33573,260701,0.000814128,90.8684,
50811.9,20.0,2.54292,261013,0.000886345,90.9772,
50934.4,20.0,2.76726,261339,0.000964539,91.0905,
51121.5,20.0,3.16305,261892,0.00110249,91.2835,
51261.1,20.0,3.50248,262357,0.0012208,91.4456,
51411,20.0,3.91127,262912,0.00136329,91.6391,
51575.8,20.0,4.41709,263598,0.00153959,91.878,
51694.6,20.0,4.81743,264146,0.00167913,92.069,
51815.2,20.0,5.25412,264753,0.00183134,92.2807,
51924,20.0,5.67017,265347,0.00197636,92.4877,
52096.6,20.0,6.36483,266385,0.00221848,92.8494,
52334.3,20.0,7.35816,268016,0.00256471,93.4179,
52525.2,20.0,8.14677,269496,0.00283959,93.9338,
52711.5,20.0,8.87028,271082,0.00309177,94.4867,
52846.4,20.0,9.3468,272312,0.00325786,94.9153,
52979.8,20.0,9.76641,273588,0.00340412,95.3599,
53108.8,20.0,10.1168,274871,0.00352625,95.8071,
53248.7,20.0,10.4299,276308,0.00363536,96.3081,
53417,20.0,10.7186,278090,0.003736,96.9291,
53568.8,20.0,10.8998,279731,0.00379918,97.5013,
53686.8,20.0,10.9968,281023,0.00383298,97.9515,
53881.1,20.0,11.0884,283170,0.0038649,98.6999,
54028,20.0,11.1175,284801,0.00387505,99.2685,
54223.7,20.0,11.1319,286979,0.00388005,100.027,
54505.4,20.0,11.1601,290117,0.00388989,101.121,
54637.6,20.0,11.2001,291595,0.00390384,101.636,
54807.8,20.0,11.3005,293508,0.00393883,102.303,
54935.1,20.0,11.4253,294955,0.00398231,102.808,
55065.5,20.0,11.6077,296457,0.0040459,103.331,
55157.4,20.0,11.7794,297530,0.00410576,103.705,
55253.3,20.0,12.0004,298671,0.00418276,104.103,
55371.6,20.0,12.3435,300110,0.00430236,104.604,
55466.1,20.0,12.6773,301291,0.00441872,105.016,
55554.9,20.0,13.0524,302433,0.00454945,105.414,
55644.1,20.0,13.4895,303616,0.00470181,105.827,
55736.9,20.0,14.0153,304892,0.00488507,106.271,
55834.3,20.0,14.6535,306287,0.00510753,106.758,
55930.5,20.0,15.3771,307732,0.00535974,107.261,
56033.4,20.0,16.2585,309358,0.00566695,107.828,
56127.2,20.0,17.1644,310925,0.00598271,108.374,
56210.9,20.0,18.057,312398,0.00629383,108.887,
56301.1,20.0,19.1108,314074,0.00666115,109.472,
56383.8,20.0,20.1611,315698,0.00702721,110.038,
56468.1,20.0,21.3117,317445,0.00742828,110.646,
56555.8,20.0,22.5932,319370,0.00787493,111.317,
56639.3,20.0,23.887,321309,0.00832589,111.993,
56715.6,20.0,25.1347,323180,0.00876078,112.645,
56837.4,20.0,27.2304,326368,0.00949125,113.757,
56934.7,20.0,28.9833,329101,0.0101022,114.709,
57055.8,20.0,31.2424,332748,0.0108897,115.981,
57168.5,20.0,33.3901,336390,0.0116383,117.25,
57265.1,20.0,35.2482,339704,0.0122859,118.405,
57388.2,20.0,37.6144,344190,0.0131106,119.969,
57487.4,20.0,39.4823,348011,0.0137617,121.3,
57571.2,20.0,41.0318,351388,0.0143018,122.478,
57678.3,20.0,42.9425,355885,0.0149678,124.045,
57777.6,20.0,44.6353,360232,0.0155578,125.56,
57874.4,20.0,46.1941,364628,0.0161011,127.092,
57965.8,20.0,47.5941,368918,0.0165891,128.588,
58046.8,20.0,48.7748,372822,0.0170006,129.948,
58130.1,20.0,49.9166,376931,0.0173986,131.38,
58241.2,20.0,51.3434,382558,0.0178959,133.342,
58354.9,20.0,52.7183,388474,0.0183751,135.404,
58449.8,20.0,53.8061,393530,0.0187543,137.166,
58595.6,20.0,55.3994,401488,0.0193097,139.94,
58684.8,20.0,56.3353,406471,0.0196359,141.677,
58791.3,20.0,57.4284,412533,0.0200169,143.79,
58917.5,20.0,58.6618,419860,0.0204468,146.344,
59015.2,20.0,59.5606,425631,0.02076,148.355,
59122.6,20.0,60.4802,432080,0.0210806,150.603,
59229,20.0,61.3048,438558,0.021368,152.861,
59316.4,20.0,61.909,443947,0.0215786,154.739,
59396.6,20.0,62.3968,448927,0.0217486,156.475,
59487.2,20.0,62.8599,454607,0.02191,158.455,
59575.9,20.0,63.2138,460195,0.0220334,160.402,
59658.4,20.0,63.4518,465423,0.0221164,162.225,
59736.8,20.0,63.5855,470405,0.0221629,163.961,
59812.7,20.0,63.6235,475231,0.0221762,165.644,
59886.6,20.0,63.5684,479931,0.022157,167.282,
59976.3,20.0,63.3744,485624,0.0220894,169.266,
60046.7,20.0,63.1232,490081,0.0220018,170.82,
60116.1,20.0,62.7839,494446,0.0218836,172.341,
60186.9,20.0,62.35,498881,0.0217323,173.887,
60256,20.0,61.8449,503168,0.0215563,175.381,
60326.8,20.0,61.2401,507531,0.0213455,176.902,
60409.2,20.0,60.4368,512544,0.0210654,178.649,
60508.1,20.0,59.3489,518469,0.0206863,180.714,
60603.6,20.0,58.1875,524081,0.0202815,182.67,
60706.4,20.0,56.8419,529991,0.0198124,184.73,
60820.6,20.0,55.2611,536394,0.0192615,186.962,
60935.4,20.0,53.6233,542644,0.0186906,189.141,
61093.6,20.0,51.3238,550945,0.0178891,192.034,
61239.6,20.0,49.2188,558284,0.0171554,194.592,
61371,20.0,47.3765,564629,0.0165132,196.804,
61488.3,20.0,45.7778,570096,0.015956,198.709,
61620.8,20.0,44.0438,576045,0.0153516,200.783,
61716.8,20.0,42.8358,580215,0.0149306,202.236,
61812,20.0,41.6839,584237,0.0145291,203.638,
61902.8,20.0,40.6168,587975,0.0141571,204.941,
62005.2,20.0,39.4554,592073,0.0137523,206.369,
62098.3,20.0,38.4413,595697,0.0133989,207.632,
62212,20.0,37.2565,600002,0.0129859,209.133,
62317.1,20.0,36.1971,603861,0.0126166,210.478,
62448,20.0,34.9384,608517,0.0121779,212.101,
62545.3,20.0,34.0429,611873,0.0118658,213.271,
62679.3,20.0,32.8624,616354,0.0114543,214.832,
62797.5,20.0,31.8695,620180,0.0111082,216.166,
62939.2,20.0,30.7318,624613,0.0107117,217.711,
63086.8,20.0,29.6057,629067,0.0103192,219.263,
63198.1,20.0,28.7932,632315,0.010036,220.396,
63361.5,20.0,27.6532,636925,0.00963861,222.003,
63487.7,20.0,26.8136,640363,0.00934596,223.201,
63611.8,20.0,26.0181,643640,0.00906872,224.343,
63726.6,20.0,25.3089,646588,0.00882151,225.371,
63883.9,20.0,24.3771,650494,0.00849674,226.732,
64002.1,20.0,23.7059,653335,0.00826277,227.722,
64142.4,20.0,22.9371,656606,0.00799479,228.862,
64266.8,20.0,22.281,659419,0.00776613,229.843,
64465.2,20.0,21.2803,663739,0.00741733,231.349,
64567.8,20.0,20.7863,665898,0.00724514,232.101,
64751.2,20.0,19.934,669631,0.00694805,233.402,
64917.1,20.0,19.1972,672876,0.00669127,234.533,
65071.4,20.0,18.5398,675787,0.0064621,235.548,
65234.3,20.0,17.8738,678753,0.00622996,236.582,
65369.3,20.0,17.3445,681130,0.00604549,237.41,
65517.4,20.0,16.7819,683657,0.00584938,238.291,
65667.2,20.0,16.2376,686131,0.00565967,239.153,
65834.5,20.0,15.6503,688796,0.00545495,240.082,
66014.6,20.0,15.0478,691560,0.00524495,241.046,
66218.9,20.0,14.3945,694567,0.00501726,242.094,
66436.8,20.0,13.7364,697632,0.00478786,243.162,
66645.4,20.0,13.1401,700435,0.00458004,244.139,
66779.8,20.0,12.7728,702177,0.00445199,244.746,
66971.8,20.0,12.2698,704580,0.00427668,245.584,
67165.1,20.0,11.7869,706904,0.00410837,246.394,
67385.5,20.0,11.2664,709444,0.00392693,247.279,
67590.8,20.0,10.8068,711710,0.00376673,248.069,
67779.3,20.0,10.4072,713709,0.00362746,248.766,
68055.1,20.0,9.85506,716502,0.00343502,249.739,
68240.9,20.0,9.50537,718301,0.00331313,250.366,
68404.8,20.0,9.21028,719835,0.00321028,250.901,
68632.3,20.0,8.82061,721885,0.00307445,251.615,
68825.3,20.0,8.50795,723557,0.00296548,252.198,
68949.8,20.0,8.3141,724604,0.00289791,252.563,
69153.8,20.0,8.00919,726269,0.00279163,253.144,
69311.9,20.0,7.78386,727517,0.00271309,253.579,
69473,20.0,7.56339,728754,0.00263625,254.01,
69616,20.0,7.3738,729821,0.00257016,254.382,
69797.6,20.0,7.14506,731140,0.00249044,254.841,
70081.6,20.0,6.80467,733120,0.00237179,255.531,
70258.8,20.0,6.60475,734308,0.00230211,255.945,
70459.1,20.0,6.38725,735609,0.0022263,256.399,
70661.1,20.0,6.17976,736878,0.00215398,256.841,
70863.3,20.0,5.98173,738107,0.00208495,257.27,
71045.8,20.0,5.80999,739183,0.00202509,257.645,
71264.9,20.0,5.61435,740434,0.0019569,258.081,
71482.3,20.0,5.42917,741635,0.00189236,258.499,
71625.8,20.0,5.31151,742405,0.00185134,258.768,
71781.2,20.0,5.18926,743221,0.00180873,259.052,
71960.7,20.0,5.05211,744140,0.00176093,259.373,
72306.5,20.0,4.80407,745843,0.00167448,259.966,
72555.5,20.0,4.63646,747019,0.00161606,260.376,
72818.6,20.0,4.46915,748216,0.00155774,260.793,
73026.9,20.0,4.34297,749134,0.00151376,261.113,
73265.9,20.0,4.20449,750155,0.00146549,261.469,
73620.2,20.0,4.01256,751611,0.00139859,261.977,
73859.7,20.0,3.89008,752557,0.0013559,262.306,
74090,20.0,3.77674,753439,0.00131639,262.614,
74293.1,20.0,3.68188,754197,0.00128333,262.878,
74456,20.0,3.60916,754791,0.00125798,263.085,
74690.9,20.0,3.50725,755626,0.00122246,263.376,
74879.4,20.0,3.42898,756280,0.00119518,263.604,
75172,20.0,3.31349,757266,0.00115493,263.948,
75354.8,20.0,3.24341,757866,0.0011305,264.157,
75479.8,20.0,3.19718,758268,0.00111439,264.297,
75675.1,20.0,3.12776,758886,0.00109019,264.512,
75888.5,20.0,3.05379,759545,0.00106441,264.742,
76084.3,20.0,2.98933,760137,0.00104194,264.948,
76222.4,20.0,2.94517,760547,0.00102655,265.091,
76359.2,20.0,2.90272,760947,0.00101175,265.231,
76541,20.0,2.847,761469,0.000992331,265.413,
76689.8,20.0,2.80332,761890,0.000977106,265.559,
76973.7,20.0,2.72271,762674,0.000949009,265.833,
77256.8,20.0,2.64663,763434,0.000922494,266.098,
77556.8,20.0,2.57009,764216,0.000895815,266.37,
77723.9,20.0,2.52957,764642,0.000881689,266.519,
78148.5,20.0,2.4303,765695,0.000847089,266.886,
78387.9,20.0,2.37848,766271,0.000829026,267.086,
78535.7,20.0,2.34651,766620,0.000817883,267.208,
78798.1,20.0,2.29292,767229,0.000799205,267.42,
78955.5,20.0,2.26334,767587,0.000788895,267.545,
79277.7,20.0,2.20276,768306,0.000767781,267.796,
79464.7,20.0,2.16996,768715,0.000756348,267.938,
79655.5,20.0,2.13627,769126,0.000744605,268.081,
79856.8,20.0,2.1033,769553,0.000733114,268.23,
80028.9,20.0,2.07654,769912,0.000723787,268.356,
80159.3,20.0,2.05602,770182,0.000716632,268.449,
80359.1,20.0,2.02723,770589,0.000706598,268.592,
80552.1,20.0,2.00146,770978,0.000697614,268.727,
80755.3,20.0,1.9782,771383,0.000689509,268.868,
80928.3,20.0,1.96255,771723,0.000684054,268.987,
81121.2,20.0,1.9527,772101,0.00068062,269.118,
81438.3,20.0,1.93343,772717,0.000673903,269.333,
81632.1,20.0,1.9118,773090,0.000666364,269.463,
81913,20.0,1.86713,773621,0.000650794,269.648,
82236.6,20.0,1.82696,774218,0.000636794,269.857,
82586.6,20.0,1.77728,774849,0.000619478,270.076,
82821.1,20.0,1.74651,775262,0.000608752,270.22,
83022.3,20.0,1.72145,775611,0.000600019,270.342,
83244.7,20.0,1.69558,775991,0.000591,270.474,
83420.5,20.0,1.6771,776287,0.000584561,270.578,
83683.8,20.0,1.65138,776726,0.000575596,270.73,
83894.8,20.0,1.62966,777072,0.000568024,270.851,
84250.9,20.0,1.59332,777646,0.000555357,271.051,
84453.8,20.0,1.57248,777967,0.000548095,271.163,
84655.8,20.0,1.55231,778282,0.000541063,271.273,
84843.7,20.0,1.53382,778572,0.000534618,271.374,
85097.6,20.0,1.5087,778959,0.000525864,271.509,
85331.5,20.0,1.4866,779309,0.00051816,271.631,
85518.5,20.0,1.4692,779585,0.000512095,271.727,
85843.3,20.0,1.43852,780058,0.0005014,271.892,
85973,20.0,1.42667,780243,0.000497271,271.957,
86187.9,20.0,1.4067,780548,0.000490309,272.063,
86390.2,20.0,1.38777,780830,0.000483711,272.161,
86597.3,20.0,1.36908,781116,0.000477198,272.261,
86760.3,20.0,1.3549,781338,0.000472254,272.338,
86916.8,20.0,1.34167,781549,0.000467645,272.412,
87221.4,20.0,1.31611,781953,0.000458734,272.553,
87373.8,20.0,1.30405,782153,0.000454531,272.622,
87510.9,20.0,1.29361,782331,0.000450891,272.684,
87773.2,20.0,1.2751,782668,0.000444442,272.802,
88072.5,20.0,1.25505,783047,0.000437452,272.934,
88490.9,20.0,1.22999,783567,0.000428718,273.115,
88703.3,20.0,1.21718,783826,0.000424253,273.205,
88910.1,20.0,1.20564,784077,0.000420231,273.293,
89224.5,20.0,1.18974,784453,0.000414688,273.424,
89448.3,20.0,1.17752,784718,0.000410429,273.516,
89630.1,20.0,1.16912,784932,0.000407501,273.591,
89768.8,20.0,1.16251,785093,0.000405198,273.647,
89998.6,20.0,1.15208,785359,0.000401563,273.74,
90129.5,20.0,1.14648,785510,0.00039961,273.792,
90270.3,20.0,1.14041,785671,0.000397492,273.848,
90500.9,20.0,1.13061,785932,0.000394077,273.939,
90703.3,20.0,1.12096,786160,0.000390716,274.019,
91033,20.0,1.10362,786527,0.00038467,274.147,
91278.9,20.0,1.09338,786797,0.0003811,274.241,
91512.5,20.0,1.08487,787051,0.000378134,274.33,
91680.5,20.0,1.07851,787233,0.000375919,274.393,
91865,20.0,1.07281,787432,0.000373931,274.462,
92053.8,20.0,1.06679,787634,0.000371833,274.532,
92306,20.0,1.05868,787902,0.000369005,274.626,
92476.1,20.0,1.0539,788081,0.000367341,274.689,
92663.9,20.0,1.04849,788279,0.000365454,274.757,
92878.8,20.0,1.04211,788503,0.000363233,274.836,
93227.5,20.0,1.03255,788865,0.0003599,274.962,
93387.3,20.0,1.02872,789030,0.000358564,275.019,
93571.7,20.0,1.02367,789219,0.000356804,275.085,
93731.2,20.0,1.01966,789382,0.000355406,275.142,
93937.5,20.0,1.01427,789592,0.000353528,275.215,
94168.4,20.0,1.00888,789826,0.000351647,275.296,
94359.8,20.0,1.00437,790018,0.000350077,275.364,
94500.4,20.0,1.00058,790159,0.000348755,275.413,
94746.5,20.0,0.995035,790405,0.000346823,275.498,
95007.5,20.0,0.989292,790664,0.000344821,275.589,
95137.4,20.0,0.986595,790792,0.000343881,275.633,
95311,20.0,0.983037,790963,0.000342641,275.693,
95555.5,20.0,0.977901,791203,0.000340851,275.776,
95708.5,20.0,0.974742,791352,0.00033975,275.829,
96131.8,20.0,0.966384,791763,0.000336836,275.972,
96410.2,20.0,0.960685,792031,0.00033485,276.065,
96663.6,20.0,0.956396,792274,0.000333355,276.15,
96954.8,20.0,0.950845,792551,0.00033142,276.247,
97258.9,20.0,0.94443,792840,0.000329184,276.347,
97395.5,20.0,0.94247,792968,0.000328501,276.392,
97764.1,20.0,0.935832,793314,0.000326187,276.513,
98032.9,20.0,0.930185,793565,0.000324219,276.6,
98327.8,20.0,0.92497,793839,0.000322401,276.695,
98628.4,20.0,0.918909,794116,0.000320289,276.792,
98778.8,20.0,0.915866,794254,0.000319228,276.84,
98929.7,20.0,0.913223,794392,0.000318307,276.888,
99127.4,20.0,0.909648,794572,0.000317061,276.951,
99346.8,20.0,0.905856,794771,0.000315739,277.02,
99616.8,20.0,0.902051,795015,0.000314413,277.105,
99844.3,20.0,0.898329,795220,0.000313116,277.177,
99946.8,20.0,0.896798,795312,0.000312582,277.209,
100122,20.0,0.894449,795469,0.000311763,277.264,
100271,20.0,0.891991,795602,0.000310907,277.31,
100462,20.0,0.888428,795773,0.000309665,277.369,
100644,20.0,0.885786,795933,0.000308744,277.425,
100835,20.0,0.882726,796102,0.000307677,277.484,
101114,20.0,0.87885,796349,0.000306326,277.57,
101391,20.0,0.873567,796591,0.000304485,277.655,
101570,20.0,0.870781,796747,0.000303514,277.709,
101784,20.0,0.868429,796933,0.000302694,277.774,
102058,20.0,0.863306,797170,0.000300908,277.857,
102294,20.0,0.859996,797374,0.000299755,277.927,
102459,20.0,0.857385,797515,0.000298845,277.977,
102698,20.0,0.853579,797720,0.000297518,278.048,
102935,20.0,0.850275,797922,0.000296366,278.119,
103230,20.0,0.845497,798172,0.000294701,278.206,
103535,20.0,0.841459,798429,0.000293293,278.295,
103871,20.0,0.835747,798711,0.000291302,278.394,
104007,20.0,0.833976,798825,0.000290685,278.433,
104220,20.0,0.831216,799002,0.000289723,278.495,
104474,20.0,0.827392,799213,0.000288391,278.568,
104712,20.0,0.823598,799409,0.000287068,278.637,
104906,20.0,0.821585,799569,0.000286366,278.692,
105243,20.0,0.816516,799845,0.000284599,278.789,
105442,20.0,0.813731,800007,0.000283629,278.845,
105763,20.0,0.809177,800268,0.000282041,278.936,
105999,20.0,0.804885,800457,0.000280545,279.002,
106143,20.0,0.803317,800573,0.000279999,279.043,
106375,20.0,0.799762,800760,0.00027876,279.108,
106628,20.0,0.796913,800962,0.000277767,279.178,
106864,20.0,0.792887,801149,0.000276364,279.243,
107137,20.0,0.789382,801366,0.000275142,279.319,
107322,20.0,0.787403,801511,0.000274452,279.369,
107659,20.0,0.783159,801776,0.000272973,279.462,
107819,20.0,0.780059,801901,0.000271892,279.505,
108103,20.0,0.777243,802122,0.000270911,279.583,
108346,20.0,0.773919,802310,0.000269752,279.648,
108526,20.0,0.771833,802450,0.000269025,279.697,
108841,20.0,0.768142,802692,0.000267739,279.781,
109054,20.0,0.765599,802855,0.000266852,279.838,
109308,20.0,0.762579,803050,0.0002658,279.906,
109551,20.0,0.760279,803234,0.000264998,279.97,
109732,20.0,0.75807,803372,0.000264228,280.018,
109984,20.0,0.754734,803562,0.000263065,280.084,
110250,20.0,0.752469,803762,0.000262276,280.154,
110544,20.0,0.749252,803983,0.000261154,280.231,
110712,20.0,0.746774,804109,0.000260291,280.275,
111009,20.0,0.743256,804330,0.000259064,280.352,
111208,20.0,0.741323,804478,0.000258391,280.404,
111380,20.0,0.739062,804605,0.000257603,280.448,
111832,20.0,0.734212,804938,0.000255912,280.564,
112282,20.0,0.728627,805267,0.000253966,280.679,
112778,20.0,0.723363,805628,0.000252131,280.804,
112928,20.0,0.721809,805736,0.000251589,280.842,
113269,20.0,0.717827,805982,0.000250201,280.928,
113477,20.0,0.715832,806130,0.000249506,280.98,
113678,20.0,0.713862,806274,0.000248819,281.03,
113847,20.0,0.711592,806395,0.000248028,281.072,
113975,20.0,0.71014,806486,0.000247522,281.103,
114200,20.0,0.708068,806645,0.000246799,281.159,
114438,20.0,0.706102,806813,0.000246114,281.218,
114590,20.0,0.704191,806920,0.000245448,281.255,
114931,20.0,0.700553,807160,0.00024418,281.339,
115324,20.0,0.697013,807435,0.000242946,281.434,
115899,20.0,0.691263,807834,0.000240942,281.573,
116082,20.0,0.689935,807960,0.000240479,281.617,
116290,20.0,0.687194,808103,0.000239524,281.667,
116520,20.0,0.685249,808261,0.000238846,281.722,
116905,20.0,0.681218,808524,0.000237441,281.814,
117222,20.0,0.678307,808739,0.000236426,281.889,
117529,20.0,0.675383,808948,0.000235407,281.962,
117792,20.0,0.672929,809125,0.000234552,282.023,
118076,20.0,0.669984,809315,0.000233525,282.09,
118270,20.0,0.668011,809445,0.000232838,282.135,
118387,20.0,0.666819,809523,0.000232422,282.162,
118757,20.0,0.664014,809770,0.000231444,282.248,
118931,20.0,0.662199,809885,0.000230812,282.288,
119433,20.0,0.658345,810217,0.000229469,282.404,
119686,20.0,0.655589,810383,0.000228508,282.462,
119860,20.0,0.653961,810497,0.00022794,282.501,
120106,20.0,0.651486,810657,0.000227078,282.558,
120521,20.0,0.648368,810927,0.000225991,282.651,
120768,20.0,0.646463,811087,0.000225327,282.707,
120963,20.0,0.643655,811212,0.000224348,282.751,
121209,20.0,0.641951,811371,0.000223754,282.806,
121491,20.0,0.639661,811551,0.000222956,282.869,
121953,20.0,0.635881,811846,0.000221638,282.972,
122278,20.0,0.632666,812052,0.000220518,283.044,
122880,20.0,0.626997,812431,0.000218542,283.176,
123065,20.0,0.625501,812547,0.000218021,283.216,
123249,20.0,0.624141,812662,0.000217546,283.256,
123498,20.0,0.62184,812818,0.000216745,283.31,
123662,20.0,0.620565,812919,0.0002163,283.346,
123936,20.0,0.618605,813089,0.000215617,283.405,
124505,20.0,0.614655,813440,0.00021424,283.527,
124738,20.0,0.613181,813583,0.000213726,283.577,
125166,20.0,0.609944,813845,0.000212598,283.668,
125472,20.0,0.607202,814031,0.000211642,283.733,
125675,20.0,0.605588,814154,0.00021108,283.776,
125988,20.0,0.603605,814343,0.000210388,283.842,
126291,20.0,0.602015,814526,0.000209834,283.906,
126494,20.0,0.600537,814648,0.000209319,283.948,
126872,20.0,0.597406,814874,0.000208228,284.027,
127122,20.0,0.59649,815024,0.000207909,284.079,
127260,20.0,0.595539,815106,0.000207577,284.108,
127405,20.0,0.595511,815192,0.000207567,284.138,
127708,20.0,0.593946,815373,0.000207022,284.201,
127830,20.0,0.593438,815445,0.000206845,284.226,
128062,20.0,0.591883,815583,0.000206303,284.274,
128236,20.0,0.590525,815685,0.000205829,284.31,
128575,20.0,0.588822,815885,0.000205236,284.38,
128907,20.0,0.585949,816080,0.000204235,284.448,
129074,20.0,0.585127,816178,0.000203948,284.482,
129275,20.0,0.583793,816295,0.000203483,284.523,
129484,20.0,0.582914,816417,0.000203177,284.565,
129729,20.0,0.580791,816560,0.000202437,284.615,
130002,20.0,0.579947,816719,0.000202142,284.67,
130191,20.0,0.578298,816828,0.000201568,284.708,
130474,20.0,0.576804,816992,0.000201047,284.765,
130604,20.0,0.576184,817066,0.000200831,284.791,
130932,20.0,0.574886,817255,0.000200378,284.857,
131207,20.0,0.572772,817413,0.000199642,284.912,
131427,20.0,0.5715,817539,0.000199198,284.956,
131609,20.0,0.570533,817642,0.000198861,284.992,
131853,20.0,0.569207,817782,0.000198399,285.041,
132131,20.0,0.567437,817940,0.000197782,285.096,
132718,20.0,0.56401,818272,0.000196588,285.211,
132870,20.0,0.56272,818357,0.000196138,285.241,
133081,20.0,0.561444,818476,0.000195693,285.283,
133391,20.0,0.559363,818650,0.000194968,285.343,
133561,20.0,0.558761,818745,0.000194758,285.376,
133931,20.0,0.557697,818951,0.000194387,285.448,
134163,20.0,0.556475,819080,0.000193961,285.493,
134316,20.0,0.555759,819165,0.000193712,285.523,
134592,20.0,0.553463,819319,0.000192912,285.576,
134962,20.0,0.551858,819523,0.000192352,285.648,
135162,20.0,0.550006,819633,0.000191707,285.686,
135481,20.0,0.547929,819808,0.000190982,285.747,
135809,20.0,0.546301,819988,0.000190415,285.81,
136048,20.0,0.545257,820118,0.000190051,285.855,
136392,20.0,0.543471,820305,0.000189429,285.92,
136643,20.0,0.542658,820441,0.000189145,285.968,
136954,20.0,0.540568,820610,0.000188417,286.026,
137176,20.0,0.538618,820729,0.000187737,286.068,
137296,20.0,0.538493,820794,0.000187694,286.091,
137467,20.0,0.537945,820886,0.000187503,286.123,
137608,20.0,0.537247,820962,0.000187259,286.149,
137820,20.0,0.536716,821076,0.000187074,286.189,
138179,20.0,0.534899,821268,0.000186441,286.256,
138316,20.0,0.533439,821341,0.000185932,286.281,
138589,20.0,0.532381,821487,0.000185563,286.332,
138958,20.0,0.530547,821683,0.000184924,286.401,
139241,20.0,0.529612,821833,0.000184598,286.453,
139551,20.0,0.52829,821997,0.000184137,286.51,
140209,20.0,0.525365,822344,0.000183118,286.631,
140404,20.0,0.524538,822446,0.000182829,286.666,
140685,20.0,0.523585,822593,0.000182497,286.718,
140843,20.0,0.522591,822676,0.000182151,286.747,
141071,20.0,0.52191,822795,0.000181914,286.788,
141207,20.0,0.521447,822866,0.000181752,286.813,
141541,20.0,0.519927,823040,0.000181222,286.873,
141682,20.0,0.519104,823113,0.000180935,286.899,
141887,20.0,0.517955,823220,0.000180535,286.936,
142075,20.0,0.517294,823317,0.000180304,286.97,
142200,20.0,0.516731,823381,0.000180109,286.992,
142392,20.0,0.51592,823481,0.000179826,287.027,
142537,20.0,0.515748,823555,0.000179766,287.053,
142829,20.0,0.514012,823706,0.000179161,287.105,
143007,20.0,0.513386,823797,0.000178943,287.137,
143233,20.0,0.513701,823913,0.000179052,287.178,
143515,20.0,0.512112,824058,0.000178498,287.228,
143840,20.0,0.51071,824224,0.00017801,287.286,
144320,20.0,0.508433,824469,0.000177216,287.371,
144562,20.0,0.507288,824591,0.000176817,287.414,
144727,20.0,0.50678,824675,0.00017664,287.443,
145153,20.0,0.505625,824891,0.000176237,287.519,
145542,20.0,0.503417,825087,0.000175468,287.587,
145691,20.0,0.503052,825162,0.00017534,287.613,
145944,20.0,0.502189,825289,0.00017504,287.657,
146137,20.0,0.500633,825386,0.000174497,287.691,
146333,20.0,0.499668,825484,0.000174161,287.725,
146755,20.0,0.499464,825695,0.00017409,287.799,
147000,20.0,0.497788,825817,0.000173506,287.841,
147314,20.0,0.497011,825973,0.000173235,287.896,
147484,20.0,0.496401,826057,0.000173022,287.925,
147677,20.0,0.4958,826153,0.000172813,287.958,
147891,20.0,0.494788,826259,0.00017246,287.996,
148120,20.0,0.493789,826372,0.000172112,288.035,
148311,20.0,0.493436,826466,0.000171989,288.068,
148459,20.0,0.492654,826539,0.000171716,288.093,
148634,20.0,0.491528,826625,0.000171324,288.123,
148818,20.0,0.491078,826716,0.000171167,288.155,
149075,20.0,0.490595,826842,0.000170998,288.199,
149335,20.0,0.489507,826969,0.000170619,288.243,
149544,20.0,0.488535,827071,0.000170281,288.279,
149703,20.0,0.487799,827149,0.000170024,288.306,
149942,20.0,0.487037,827265,0.000169758,288.346,
150273,20.0,0.48611,827426,0.000169435,288.402,
150589,20.0,0.48398,827579,0.000168693,288.456,
150771,20.0,0.483936,827668,0.000168678,288.486,
150990,20.0,0.483034,827774,0.000168363,288.523,
151163,20.0,0.482736,827857,0.000168259,288.553,
151480,20.0,0.482241,828010,0.000168087,288.606,
151952,20.0,0.481369,828238,0.000167783,288.685,
152215,20.0,0.481157,828364,0.000167709,288.729,
152388,20.0,0.481036,828447,0.000167667,288.758,
152643,20.0,0.480075,828570,0.000167332,288.801,
152909,20.0,0.479095,828697,0.00016699,288.845,
153114,20.0,0.47834,828795,0.000166727,288.88,
153365,20.0,0.476812,828915,0.000166194,288.921,
153592,20.0,0.47626,829023,0.000166002,288.959,
153821,20.0,0.476202,829133,0.000165982,288.997,
154120,20.0,0.475027,829274,0.000165572,289.046,
154319,20.0,0.474,829369,0.000165214,289.079,
154565,20.0,0.472971,829485,0.000164856,289.12,
154798,20.0,0.473263,829596,0.000164957,289.158,
155092,20.0,0.471901,829735,0.000164483,289.207,
155300,20.0,0.470791,829833,0.000164096,289.241,
155478,20.0,0.470446,829917,0.000163976,289.27,
155675,20.0,0.469693,830009,0.000163713,289.303,
155855,20.0,0.469727,830094,0.000163725,289.332,
155984,20.0,0.469119,830155,0.000163513,289.353,
156135,20.0,0.467842,830225,0.000163068,289.378,
156282,20.0,0.467012,830294,0.000162779,289.402,
156589,20.0,0.466124,830437,0.000162469,289.452,
156858,20.0,0.46533,830562,0.000162192,289.495,
157098,20.0,0.464147,830674,0.00016178,289.534,
157500,20.0,0.462192,830860,0.000161099,289.599,
157736,20.0,0.46126,830969,0.000160774,289.637,
158067,20.0,0.460741,831121,0.000160593,289.69,
158347,20.0,0.458922,831250,0.000159959,289.735,
158709,20.0,0.458436,831416,0.000159789,289.793,
159084,20.0,0.458318,831588,0.000159749,289.853,
159293,20.0,0.457483,831684,0.000159457,289.886,
159525,20.0,0.456727,831790,0.000159194,289.923,
159696,20.0,0.456291,831868,0.000159042,289.95,
159907,20.0,0.455869,831964,0.000158895,289.984,
160233,20.0,0.454459,832112,0.000158403,290.036,
160378,20.0,0.454333,832178,0.000158359,290.059,
160514,20.0,0.454018,832240,0.00015825,290.08,
160703,20.0,0.453353,832326,0.000158018,290.11,
161145,20.0,0.452772,832526,0.000157815,290.18,
161382,20.0,0.451891,832633,0.000157508,290.217,
161785,20.0,0.45129,832815,0.000157299,290.281,
162075,20.0,0.449978,832946,0.000156841,290.326,
162325,20.0,0.449452,833059,0.000156658,290.366,
162571,20.0,0.448069,833169,0.000156176,290.404,
162718,20.0,0.447626,833235,0.000156022,290.427,
162883,20.0,0.447205,833309,0.000155875,290.453,
163092,20.0,0.446268,833402,0.000155548,290.485,
163260,20.0,0.445711,833477,0.000155354,290.511,
163472,20.0,0.445356,833571,0.000155231,290.544,
163723,20.0,0.444362,833683,0.000154884,290.583,
164007,20.0,0.443697,833809,0.000154652,290.627,
164225,20.0,0.443466,833906,0.000154572,290.661,
164469,20.0,0.442549,834014,0.000154252,290.698,
164641,20.0,0.442351,834090,0.000154183,290.725,
164836,20.0,0.44191,834176,0.000154029,290.755,
165312,20.0,0.439783,834386,0.000153288,290.828,
165666,20.0,0.439414,834541,0.000153159,290.882,
166029,20.0,0.438385,834701,0.000152801,290.938,
166240,20.0,0.437757,834793,0.000152582,290.97,
166451,20.0,0.436641,834885,0.000152193,291.002,
166577,20.0,0.436662,834940,0.0001522,291.021,
166714,20.0,0.436584,835000,0.000152173,291.042,
167048,20.0,0.435872,835146,0.000151925,291.093,
167636,20.0,0.434892,835402,0.000151583,291.182,
167932,20.0,0.434109,835530,0.00015131,291.227,
168076,20.0,0.433623,835592,0.000151141,291.249,
168315,20.0,0.431746,835696,0.000150486,291.285,
168450,20.0,0.431875,835754,0.000150532,291.305,
168694,20.0,0.432102,835859,0.000150611,291.342,
168921,20.0,0.430985,835958,0.000150221,291.376,
169075,20.0,0.431069,836024,0.00015025,291.399,
169290,20.0,0.429891,836116,0.00014984,291.431,
169535,20.0,0.429373,836222,0.00014966,291.468,
169717,20.0,0.42924,836300,0.000149613,291.495,
170025,20.0,0.427329,836432,0.000148947,291.541,
170206,20.0,0.427682,836509,0.00014907,291.568,
170417,20.0,0.426983,836599,0.000148826,291.6,
170559,20.0,0.426978,836659,0.000148825,291.621,
170730,20.0,0.425863,836733,0.000148436,291.646,
171061,20.0,0.425567,836874,0.000148333,291.695,
171403,20.0,0.425043,837019,0.00014815,291.746,
171568,20.0,0.423836,837089,0.00014773,291.77,
171698,20.0,0.423976,837144,0.000147778,291.79,
171956,20.0,0.423773,837253,0.000147707,291.828,
172151,20.0,0.423155,837336,0.000147492,291.856,
172432,20.0,0.422561,837455,0.000147285,291.898,
172683,20.0,0.421244,837561,0.000146826,291.935,
173051,20.0,0.420972,837716,0.000146731,291.989,
173294,20.0,0.420071,837818,0.000146417,292.024,
173460,20.0,0.419809,837888,0.000146326,292.049,
173589,20.0,0.419355,837942,0.000146168,292.068,
173743,20.0,0.418485,838006,0.000145864,292.09,
173962,20.0,0.418333,838098,0.000145812,292.122,
174300,20.0,0.418128,838240,0.00014574,292.171,
174477,20.0,0.417477,838313,0.000145513,292.197,
174759,20.0,0.416355,838431,0.000145122,292.238,
174979,20.0,0.415816,838523,0.000144934,292.27,
175217,20.0,0.415225,838622,0.000144728,292.305,
175382,20.0,0.415175,838690,0.000144711,292.328,
175679,20.0,0.413177,838813,0.000144014,292.371,
176023,20.0,0.412853,838955,0.000143901,292.421,
176293,20.0,0.41232,839067,0.000143715,292.46,
176564,20.0,0.411154,839179,0.000143309,292.499,
176796,20.0,0.410193,839274,0.000142974,292.532,
177165,20.0,0.408785,839425,0.000142484,292.585,
177322,20.0,0.40813,839489,0.000142255,292.607,
177463,20.0,0.407768,839547,0.000142129,292.627,
177807,20.0,0.407624,839687,0.000142079,292.676,
178039,20.0,0.406512,839782,0.000141691,292.709,
178223,20.0,0.405943,839856,0.000141493,292.735,
178517,20.0,0.405543,839976,0.000141354,292.777,
178766,20.0,0.405102,840076,0.0001412,292.812,
179072,20.0,0.404568,840200,0.000141014,292.855,
179348,20.0,0.403806,840312,0.000140748,292.894,
179570,20.0,0.402799,840401,0.000140397,292.925,
179876,20.0,0.401816,840525,0.000140054,292.968,
180037,20.0,0.401449,840589,0.000139926,292.99,
180236,20.0,0.402034,840669,0.00014013,293.018,
180455,20.0,0.401685,840757,0.000140009,293.049,
180632,20.0,0.401661,840828,0.000140001,293.074,
181097,20.0,0.402006,841015,0.00014012,293.139,
181410,20.0,0.400469,841140,0.000139585,293.182,
181546,20.0,0.40043,841195,0.000139571,293.201,
181783,20.0,0.399338,841290,0.000139191,293.234,
182141,20.0,0.397555,841432,0.000138569,293.284,
182390,20.0,0.396417,841531,0.000138172,293.319,
182624,20.0,0.396293,841624,0.000138129,293.351,
182868,20.0,0.395013,841721,0.000137683,293.385,
183064,20.0,0.3948,841798,0.000137609,293.412,
183314,20.0,0.394468,841897,0.000137493,293.446,
183647,20.0,0.393833,842028,0.000137272,293.492,
183817,20.0,0.393486,842095,0.000137151,293.515,
184028,20.0,0.392908,842178,0.000136949,293.544,
184193,20.0,0.392888,842242,0.000136943,293.567,
184557,20.0,0.39172,842385,0.000136535,293.616,
184869,20.0,0.392079,842508,0.000136661,293.659,
185020,20.0,0.391158,842567,0.00013634,293.68,
185213,20.0,0.39132,842642,0.000136396,293.706,
185379,20.0,0.390807,842707,0.000136217,293.729,
185608,20.0,0.389973,842797,0.000135927,293.76,
185910,20.0,0.38996,842915,0.000135922,293.801,
186210,20.0,0.388938,843031,0.000135566,293.841,
186623,20.0,0.387515,843192,0.00013507,293.897,
186836,20.0,0.387286,843274,0.00013499,293.926,
186949,20.0,0.386999,843318,0.00013489,293.941,
187234,20.0,0.386768,843428,0.000134809,293.98,
187575,20.0,0.385992,843560,0.000134539,294.026,
187835,20.0,0.385308,843660,0.0001343,294.061,
188074,20.0,0.385102,843752,0.000134229,294.093,
188292,20.0,0.38493,843836,0.000134169,294.122,
188459,20.0,0.384427,843901,0.000133993,294.145,
188635,20.0,0.384049,843968,0.000133862,294.168,
188991,20.0,0.38349,844105,0.000133667,294.216,
189584,20.0,0.383926,844332,0.000133819,294.295,
189720,20.0,0.383999,844384,0.000133844,294.313,
190001,20.0,0.384275,844492,0.00013394,294.351,
190428,20.0,0.383106,844656,0.000133533,294.408,
190681,20.0,0.38344,844753,0.000133649,294.442,
190847,20.0,0.382591,844816,0.000133354,294.464,
191059,20.0,0.382221,844898,0.000133225,294.492,
191295,20.0,0.381259,844988,0.000132889,294.523,
191547,20.0,0.380603,845084,0.000132661,294.557,
191875,20.0,0.379099,845208,0.000132136,294.6,
192015,20.0,0.379051,845262,0.00013212,294.619,
192440,20.0,0.378585,845423,0.000131957,294.675,
192574,20.0,0.378025,845473,0.000131762,294.693,
192946,20.0,0.376548,845613,0.000131247,294.742,
193178,20.0,0.376698,845701,0.000131299,294.772,
193397,20.0,0.375023,845783,0.000130715,294.801,
193988,20.0,0.374703,846005,0.000130604,294.878,
194177,20.0,0.374083,846075,0.000130388,294.902,
194311,20.0,0.373748,846125,0.000130271,294.92,
194456,20.0,0.373825,846179,0.000130298,294.939,
194729,20.0,0.373549,846282,0.000130202,294.974,
194941,20.0,0.373794,846361,0.000130287,295.002,
195108,20.0,0.373112,846423,0.00013005,295.024,
195513,20.0,0.372638,846574,0.000129884,295.076,
195812,20.0,0.371783,846686,0.000129586,295.115,
196047,20.0,0.370696,846773,0.000129207,295.146,
196228,20.0,0.37055,846840,0.000129157,295.169,
196622,20.0,0.370071,846986,0.000128989,295.22,
196870,20.0,0.369802,847077,0.000128896,295.252,
197197,20.0,0.369124,847198,0.00012866,295.294,
197338,20.0,0.369446,847250,0.000128772,295.312,
197476,20.0,0.368316,847301,0.000128378,295.33,
197482,20.0,0.368315,847303,0.000128378,295.331,
197488,20.0,0.368314,847305,0.000128377,295.331,
197494,20.0,0.368313,847308,0.000128377,295.332,
197499,20.0,0.368311,847310,0.000128376,295.333,
197505,20.0,0.368306,847312,0.000128374,295.333,
197511,20.0,0.3683,847314,0.000128372,295.334,
197514,20.0,0.368297,847315,0.000128371,295.335,